onset,duration,sub_number,trial_number,trial_color_UP,trial_color_chosen,trial_direction,trial_RT_colochoice,SON,SOFF,meanPos,stdPos,meanVelo,stdVelo,meanVSS,proba
8791.399394,1.458302567,1,1,0,0,1,1.048349511,-842,-208,0.048861788617883616,0.008865890003392338,-0.5691056910569475,3.746900364813917,2.1138211382114007,25
8794.49097,1.449871936,1,2,1,1,1,0.711683262,-833,-208,-0.006991869918700684,0.011141474805285675,0.854700854700855,,-0.8943089430894507,25
8797.507458,1.508185016,1,3,1,0,1,0.637066657,-892,-209,-0.04634146341463257,0.008459192342744488,0.6504065040650497,4.726647757316533,-56.5040650406504,25
8800.36551,1.333315718,1,4,0,1,-1,0.434157669,-717,-209,0.03967479674796338,0.019256110862244193,1.3821138211382484,4.322726841644989,-71.13821138211382,25
8803.198679,1.416712003,1,5,1,1,-1,0.575213434,-800,-208,0.10268292682927113,0.006635859813792537,0.08130081300819478,3.1868466865882916,-4.837398373983731,25
8805.981897,1.433265331,1,6,0,0,-1,0.451638774,-817,-209,0.04414634146341155,0.010547194297775887,-0.3252032520325017,5.903693118579609,-10.162601626016261,25
8808.731826,1.483255712,1,7,1,0,-1,0.395217516,-875,-209,-0.009837398373990135,0.03701018040528966,-2.0731707317073265,4.520061991517893,65.20325203252037,25
8811.531632,1.399886903,1,8,1,0,1,0.402721686,-784,-209,-0.004634146341466872,0.01726259609313386,0.20325203252037133,6.514473379178579,20.203252032520286,25
8814.289801,1.424900424,1,9,0,1,-1,0.439327691,-817,-208,0.05601626016259893,0.010037276020321648,0.40650406504060416,6.222832420529566,-15.691056910569076,25
8817.072958,1.349915917,1,10,0,1,1,0.441122724,-742,-208,-0.04463414634145831,0.021529523712833884,-1.3821138211382484,5.005450132916501,67.03252032520328,25
8819.756087,1.424970257,1,11,0,1,1,0.412155944,-809,-209,-0.011382113821134606,0.009168626870255428,0.44715447154472454,5.460183423116643,-58.73983739837403,25
8822.514386,1.416538766,1,12,0,1,-1,0.413745845,-800,-208,-0.07829268292683071,0.013487116327367845,-1.0162601626016723,4.4153901941347495,-10.121951219512228,25
8825.19748,1.366628857,1,13,0,0,1,0.35163274,-750,-208,0.045853658536583596,0.015548235815955646,-1.153846153846173,,68.17073170731705,25
8827.939093,1.574897388,1,14,0,0,1,0.454988407,-958,-208,-0.056097560975610306,0.011308706373586842,-0.12195121951226921,6.305138824525269,5.609756097561049,25
8830.922274,1.441525528,1,15,0,0,1,0.489507895,-825,-209,-0.11853658536586054,0.007493800729627807,4.332577657073782e-17,3.789873827904554,-53.86178861788617,25
8833.713715,1.383273722,1,16,0,0,-1,0.431756023,-767,-209,0.029999999999992217,0.011346052048402807,-0.24390243902435316,6.692642236794263,-11.78861788617892,25
8836.38853,1.533285905,1,17,0,1,1,0.370039205,-925,-209,0.09406504065040866,0.01733519415262127,0.6666666666665816,,10.894308943089417,25
8839.388336,1.375032776,1,18,1,1,-1,0.546243376,-759,-209,0.027235772357726902,0.00902988187116451,-0.24390243902430706,2.7927746402142954,-17.642276422764166,25
8842.038237,1.508209586,1,19,0,1,1,0.360950894,-892,-209,0.06650406504064797,0.010503863674477549,0.36585365853652985,6.538526589555384,18.048780487804866,25
8844.888043,1.51665999,1,20,1,1,-1,0.425364744,-900,-209,-0.0630081300813021,0.020467146637475744,-1.7073170731707503,4.378560183310094,-5.934959349593466,25
8847.762882,1.341629775,1,21,1,1,1,0.432122146,-733,-208,-0.031463414634147396,0.016995953918509728,-1.3333333333333521,,6.544715447154431,25
8850.446065,1.533352673,1,22,1,1,-1,0.420779644,-916,-208,0.04487804878048997,0.005649090330419709,4.332577657073782e-17,3.6066785386699727,-63.49593495934961,25
8853.370939,1.383324678,1,23,0,1,-1,0.474175991,-767,-208,0.01243902439024553,0.015341530195760929,-0.731707317073291,2.7558457327930466,66.17886178861787,25
8856.262404,1.399925064,1,24,1,1,1,0.585350759,-783,-208,0.07268292682927077,0.006203417189247765,0.04065040650407421,4.006901310683937,11.504065040650392,25
8859.003903,1.358312054,1,25,1,1,-1,0.42223458,-742,-209,0.12772357723577543,0.02129957173817722,1.8421052631580144,,-64.2682926829268,25
8861.653788,1.358328425,1,26,0,1,-1,0.377846739,-741,-208,0.0030894308943110326,0.010453400429557985,-0.6666666666666762,,6.829268292682954,25
8864.420335,1.558230189,1,27,1,1,-1,0.488420836,-950,-208,-0.04016260162601199,0.01277483894277642,-0.4065040650406503,4.908105234459792,-5.934959349593505,25
8867.286914,1.52482604,1,28,0,1,-1,0.394101203,-909,-209,-0.01268292682926785,0.024765140457956896,-1.869918699187001,5.362156893606935,1.4634146341463055,25
8870.228416,1.35816052,1,29,0,1,-1,0.498497686,-741,-208,0.06699186991869824,0.012119003638513233,-1.0569105691057004,6.319798305169075,-5.081300813008084,25
8872.953279,1.491531209,1,30,0,1,-1,0.449828083,-884,-209,0.050975609756097134,0.012038561436681161,-1.1111111111111696,,-13.943089430894336,25
8875.711312,1.466592838,1,31,0,0,-1,0.352690267,-850,-208,0.0071544715447178124,0.009863232891781913,-0.9756097560974593,3.7172346307820807,-8.292682926829258,25
8878.494493,1.491598457,1,32,1,0,-1,0.388108842,-884,-209,-0.0009756097560997225,0.02737122004878149,-1.6666666666666756,5.796924705683498,58.45528455284551,25
8881.377665,1.408374856,1,33,0,0,1,0.484418663,-792,-208,0.02463414634146088,0.024273977626686514,2.032520325203345,5.515587607507594,73.29268292682929,25
8884.169299,1.358140175,1,34,1,0,1,0.46803753,-742,-209,0.04975609756097547,0.026059669070023307,1.7073170731707037,5.56420768529069,1.7886178861788995,25
8886.927485,1.449919904,1,35,1,0,1,0.485693845,-833,-208,0.0539024390243854,0.008683596697767765,0.40650406504065045,4.289340285167359,3.2926829268291393,25
8889.71055,1.375079571,1,36,0,0,1,0.411934363,-758,-208,-0.04626016260162619,0.008026988648583849,-0.48780487804879896,1.9562942139054242,2.479674796748022,25
8892.443763,1.558244216,1,37,0,0,1,0.441905927,-942,-209,-0.08032520325203239,0.013619281569086338,-1.4102564102563424,,-65.65040650406505,25
8895.393565,1.566619231,1,38,1,1,-1,0.485019991,-950,-209,-0.10593495934959485,0.01181969550919407,-0.4065040650406505,6.704976186730026,-74.87804878048777,25
8898.310128,1.424916197,1,39,1,1,-1,0.431522881,-808,-208,0.062357723577234514,0.008198895762912663,-0.12195121951217666,4.916515002517248,-2.7235772357723755,25
8901.051649,1.491602145,1,40,0,1,-1,0.399624036,-884,-209,0.05821138211381987,0.01277690841289217,-1.056910569105654,3.7495455471867367,62.39837398373979,25
8903.901406,1.550053289,1,41,1,0,1,0.43925719,-933,-208,0.07365853658536578,0.01027547078023384,-0.32520325203250183,5.9947980181545635,80.77235772357726,25
8906.784589,1.50830367,1,42,0,0,1,0.411393371,-892,-209,0.09528455284552886,0.013210318906561503,9.109522253334617e-17,,-61.260162601625936,25
8909.601196,1.583287833,1,43,0,1,-1,0.393313735,-967,-208,-0.010000000000001442,0.023353578933826002,-1.8699186991869088,7.1206703380968905,-19.756097560975665,25
8912.57599,1.433244639,1,44,0,1,1,0.462599593,-817,-209,-0.0074796747967504065,0.007114634099889247,0.8130081300813933,4.017609463611801,75.20325203252033,25
8915.384108,1.375041517,1,45,0,0,1,0.455126621,-767,-209,-0.012439024390247931,0.015748032536979185,1.3821138211381558,3.4707925538431477,-0.16260162601620656,25
8918.058964,1.541622803,1,46,1,0,1,0.383535708,-925,-209,-0.09463414634146165,0.02109156830158863,-1.178861788617877,4.019665453441634,-57.92682926829273,25
8920.942232,1.541550606,1,47,1,1,-1,0.422187075,-933,-208,-0.06398373983740174,0.008743523518377287,-0.3333333333333618,,-73.08943089430893,25
8923.825537,1.391406799,1,48,0,1,-1,0.420437987,-775,-209,-0.09016260162600949,0.04095866858459759,-2.682926829268255,6.013512886253068,-2.8048780487804783,25
8926.741867,1.458239714,1,49,1,1,-1,0.597967011,-842,-209,0.04804878048780296,0.01985371846338386,-1.5040650406503786,7.569057661422905,-4.390243902439007,25
8929.483455,1.47485677,1,50,1,0,-1,0.375869563,-859,-209,0.008211382113818938,0.017944472633370092,4.332577657073782e-17,5.570440763360141,-3.577235772357752,25
8940.841137,1.50824984,1,51,0,1,-1,0.970545876,-891,-208,0.03552845528455566,0.013968132716119559,0.9349593495935241,6.707686612141349,63.455284552845534,25
8943.7243,1.558289225,1,52,0,1,1,0.460465017,-941,-208,-0.028699186991868405,0.011724242507876657,-0.7083333333333522,,74.30894308943085,25
8946.690715,1.466675261,1,53,0,0,1,0.494092212,-850,-209,0.007479674796749115,0.011875485942445151,-0.20325203252027896,7.261987771199391,-66.30081300813009,25
8949.482266,1.466650263,1,54,1,0,-1,0.41131243,-850,-208,-0.009349593495935235,0.010222587192845705,0.6504065040650039,6.583609120296,-3.1300813008129675,25
8952.390432,1.483331494,1,55,0,0,1,0.524003225,-867,-208,0.03886178861788309,0.027709387685521638,2.032520325203344,5.756017178254519,74.71544715447152,25
8955.348597,1.433299226,1,56,0,0,1,0.559127198,-817,-209,0.00260162601625909,0.04711731084110836,0.3418803418803224,,-0.040650406504120266,25
8958.198448,1.33325925,1,57,0,0,1,0.498982924,-717,-209,0.029593495934955912,0.009075152040569311,0.1666666666666572,,-58.98373983739833,25
8960.889956,1.424939959,1,58,0,1,-1,0.438441393,-809,-209,-0.030975609756099896,0.008466221819151309,-4.6271929377547985e-14,5.308887062541349,-75.52845528455283,25
8963.989747,1.533289517,1,59,1,1,-1,0.758075907,-917,-209,-0.0019512195121987076,0.008907542064911934,-0.4471544715447709,4.066259979729732,4.674796747967479,25
8966.906314,1.391645949,1,60,1,1,-1,0.46215105,-775,-208,-0.11252032520325231,0.03352335289572638,-2.3170731707316796,3.945393677577706,4.715447154471552,25
8969.681094,1.525036369,1,61,1,1,-1,0.464518454,-908,-208,-0.01967479674796622,0.026089328286349935,-1.0833333333332955,,7.520325203252032,25
8972.514267,1.583297364,1,62,0,1,-1,0.387292984,-967,-209,0.07056910569105651,0.00909334238161359,1.0569105691057465,4.061787316031654,-0.8536585365853752,25
8975.464104,1.491631977,1,63,1,1,-1,0.448789847,-875,-209,-0.07495934959349468,0.039271911496468484,-2.9999999999999716,,-2.479674796747976,25
8978.397378,1.55825242,1,64,1,1,-1,0.526911151,-941,-208,-0.010406504065037934,0.008757120366620243,-0.487804878048799,4.900692700871737,50.0813008130081,25
8981.355445,1.516634146,1,65,1,1,1,0.479064192,-900,-209,-0.016504065040655824,0.026266831945253675,-2.2499999999999907,,69.39024390243915,25
8984.421943,1.408294849,1,66,0,0,1,0.633590185,-792,-209,0.02146341463414771,0.00952018287369422,-0.7723577235772265,2.388362735214619,-67.76422764227648,25
8987.280175,1.424939961,1,67,1,0,-1,0.531976005,-808,-208,-0.0658536585365839,0.016020180280441863,-0.24390243902435332,6.317706176234929,-22.723577235772353,25
8990.104963,1.441631104,1,68,0,0,1,0.481613882,-825,-209,0.02715447154471025,0.01509482662149649,-0.7723577235772264,5.008090486592564,84.39024390243898,25
8992.863237,1.45816399,1,69,0,0,1,0.399783389,-850,-209,0.040731707317072825,0.009198855567428403,0.6504065040650038,4.4763462764308555,14.471544715447116,25
8995.696452,1.40818013,1,70,1,0,1,0.450237515,-791,-208,0.11682926829268472,0.009541681766057433,0.487804878048845,4.421000365633218,-57.64227642276421,25
8998.512871,1.333266962,1,71,0,0,-1,0.489414223,-725,-208,0.035528455284555845,0.013717931254891612,-0.12195121951208429,6.251181394061828,-77.72357723577232,25
9001.162753,1.458234952,1,72,0,0,-1,0.397236399,-841,-208,0.05626016260162393,0.016143074363049393,-0.8130081300813007,3.8977783822335312,60.650406504065046,25
9004.004238,1.533263449,1,73,0,1,1,0.454460535,-917,-209,0.04845528455284213,0.00803850867922463,0.04065040650407424,3.7265582557286043,78.25203252032514,25
9006.920697,1.55835153,1,74,1,1,1,0.466200313,-942,-208,0.1788617886178835,0.01893872729704869,1.4634146341463967,6.324503064888049,-59.186991869918664,25
9009.853958,1.574854986,1,75,1,1,-1,0.460646088,-959,-209,-0.038292682926828824,0.009902025169239662,-0.24390243902435332,3.3649109083863356,-78.04878048780486,25
9012.795379,1.574981982,1,76,0,0,-1,0.447275679,-958,-208,-0.010650406504064966,0.02342676966454961,-0.8943089430893568,4.278539770905664,62.27642276422761,25
9015.736921,1.366637912,1,77,1,0,1,0.44928101,-750,-208,0.05056910569105676,0.008891945406150297,0.48780487804879896,5.524568217429259,79.43089430894308,25
9018.528381,1.366653284,1,78,0,0,1,0.508865296,-751,-209,0.01829268292682816,0.01057160695856128,-0.3658536585365762,4.425109970950768,-3.5365853658535835,25
9021.25328,1.474917501,1,79,0,0,1,0.436967884,-859,-209,0.07056910569106159,0.016350561719116398,-0.9583333333333617,,-4.7154471544716,25
9024.086452,1.366644826,1,80,0,0,1,0.436817007,-750,-208,0.01674796747967315,0.008993942630014714,0.2032520325203714,4.052419431083628,2.1138211382114007,25
9026.861347,1.474913857,1,81,1,0,1,0.488303094,-867,-209,-0.012682926829262304,0.011067068504706033,-0.16260162601620487,5.747685737279067,-57.520325203252035,25
9029.694467,1.375009781,1,82,1,0,-1,0.444531609,-758,-208,-0.027642276422763765,0.010807199368915405,-0.12195121951222285,5.550827520797458,-15.813008130081327,25
9032.44437,1.533275134,1,83,1,0,1,0.455357605,-916,-208,0.02195121951219152,0.011234819297642312,0.32520325203250217,5.681466949046542,0.04065040650413898,25
9035.602541,1.424914728,1,84,1,0,-1,0.707935701,-808,-208,-0.08382113821138314,0.008957121290482149,-0.48780487804884515,4.451544332358755,-10.203252032520396,25
9038.46069,1.391547355,1,85,1,0,1,0.512705967,-775,-209,0.019349593495936217,0.00904597141183809,-0.04065040650407431,4.7781090259887256,12.154471544715518,25
9041.193905,1.54150725,1,86,1,0,-1,0.425097179,-933,-209,0.052113821138212876,0.02219765315088152,1.382113821138248,4.491823933841107,-10.20325203252034,25
9044.035346,1.52499281,1,87,0,0,1,0.382704436,-908,-208,0.05000000000000111,0.007757307604472606,-0.7723577235772726,5.348271267638832,-0.8943089430894826,25
9046.87685,1.474910104,1,88,1,1,-1,0.39702742,-859,-209,0.3861788617886151,0.02552949094269127,1.6260162601626014,4.470435930527131,1.9918699186991722,25
9049.69332,1.483358193,1,89,1,0,1,0.421450322,-866,-208,0.05186991869918288,0.009159971776881114,-0.1626016260162047,4.505414960161539,3.6991869918699813,25
9052.759799,1.358304967,1,90,0,0,-1,0.661841375,-742,-209,-0.04341463414634302,0.01173889147823093,-0.12195121951213031,5.477104895431432,-11.626016260162675,25
9055.643039,1.408234691,1,91,0,0,1,0.607744503,-792,-209,0.04146341463414432,0.011194741123940043,-0.5284552845528269,5.8485750284296705,89.1056910569106,25
9058.384596,1.374852188,1,92,1,0,1,0.419250537,-759,-209,0.10252032520325474,0.014723754561159704,0.9349593495935236,3.7003035927559305,-63.21138211382108,25
9061.34278,1.5581313,1,93,1,0,-1,0.661739981,-942,-208,-0.11878048780488333,0.012558278448552925,-0.9756097560975979,4.938313375165634,-16.66666666666666,25
9064.259321,1.533149642,1,94,1,0,1,0.442047384,-925,-209,-0.001544715447149555,0.021578896034053864,-1.2601626016259795,5.711924575690851,78.04878048780493,25
9067.317384,1.408259232,1,95,1,0,1,0.606631773,-791,-208,-0.011300813008124426,0.010265817312301818,-0.5691056910568552,5.908169853340975,8.536585365853565,25
9070.042289,1.32481664,1,96,1,0,1,0.4018382,-717,-208,0.003658536585361879,0.004415764427316849,0.08130081300814854,2.575452692919731,-66.21951219512191,25
9072.625379,1.341576648,1,97,1,1,-1,0.343746269,-725,-208,0.015691056910573504,0.020841887991793314,-1.2195121951219512,5.1930794870475365,-78.94308943089433,25
9075.441911,1.483275362,1,98,1,1,-1,0.560644369,-866,-208,-0.10317073170731217,0.011449856480811047,-0.1626016260163433,4.414267304227056,56.86991869918693,25
9078.400164,1.408201533,1,99,0,1,1,0.553431263,-791,-208,-0.08975609756097938,0.01971071102278509,-1.6666666666666756,4.8834658268882345,15.81300813008136,25
9081.150008,1.349946509,1,100,0,1,-1,0.431693028,-733,-209,0.03634146341463039,0.013332341823137368,0.284552845528474,4.909788340449995,-69.99999999999997,25
9089.857777,1.483270433,1,101,0,1,-1,0.719620401,-867,-209,-0.014308943089428046,0.007687119774681747,-0.04065040650407439,4.006901310683592,-4.674796747967481,25
9092.649257,1.583363861,1,102,0,0,-1,0.394500712,-967,-209,0.038373983739833376,0.014584377883896476,-1.3414634146342201,3.378144168181644,58.98373983739833,25
9095.599175,1.433225552,1,103,1,0,1,0.446237118,-817,-209,-0.16000000000000467,0.023524752350749956,-1.3414634146340352,5.511991266585517,69.0650406504065,25
9098.473944,1.333475566,1,104,0,0,1,0.527919165,-717,-208,0.06682926829267843,0.012878931562089224,0.9909909909910113,,-54.999999999999986,25
9101.12383,1.524925548,1,105,0,1,-1,0.399825414,-909,-209,0.026829268292684956,0.012211371288142127,-0.1626016260162047,5.306396381164408,-12.845528455284526,25
9104.106993,1.374930934,1,106,0,1,1,0.535172706,-767,-208,0.03105691056911405,0.0060763859970906775,0.1626016260162971,3.9612773057167923,68.94308943089429,25
9107.115149,1.541675227,1,107,1,0,1,0.717973211,-934,-209,-0.11821138211382295,0.0248245878636807,-1.4634146341463046,5.142878913257366,-1.422764227642276,25
9110.281667,1.341586939,1,108,0,1,1,0.710556101,-725,-209,-0.016504065040652955,0.008293479955321375,0.20325203252037136,3.591527253839335,-4.959349593495954,25
9113.056493,1.458350497,1,109,1,0,1,0.512912427,-842,-208,-0.012439024390242201,0.007091369914587279,-0.48780487804870665,3.6671082963718327,-53.61788617886178,25
9115.831371,1.408234848,1,110,1,1,-1,0.398515452,-792,-209,-0.04121951219512615,0.0060173587219399145,0.04065040650398184,3.38352065799805,-8.211382113821145,25
9118.631264,1.566507818,1,111,0,1,1,0.472346,-950,-209,-0.0008130081300813934,0.01219620591388536,-1.5853658536584354,7.543471301959889,81.62601626016263,25
9121.61432,1.416576493,1,112,0,0,1,0.49962382,-800,-209,0.027560975609760976,0.014630984301564473,-0.8943089430894492,4.554659917213008,-53.57723577235775,25
9124.430892,1.349964966,1,113,1,0,-1,0.48274225,-733,-208,0.014878048780489156,0.008398023745441713,0.24390243902435324,4.317371722716344,-11.951219512195111,25
9127.655648,1.458342184,1,114,1,0,1,0.955506532,-850,-209,-0.04634146341463137,0.03317431831398893,-1.4634146341463046,5.324117061693356,62.479674796747986,25
9130.397169,1.358298147,1,115,0,0,1,0.366587303,-750,-208,-0.06276422764227275,0.010931861017217338,0.8943089430894494,3.737627484218655,-2.032520325203251,25
9133.038773,1.44987894,1,116,0,1,1,0.366661819,-842,-208,-0.018373983739838895,0.027816761593095866,-1.4634146341463512,6.483198234126854,-56.66666666666671,25
9136.046869,1.474961621,1,117,1,1,-1,0.639980876,-859,-209,0.06528455284552971,0.012793452122550108,0.9349593495933851,4.771879866936421,-68.61788617886172,25
9138.805149,1.524830669,1,118,0,1,-1,0.366886136,-909,-209,-0.014552845528454343,0.013664342552295945,-0.8536585365853291,4.449687897759496,48.008130081300784,25
9141.796595,1.391557658,1,119,1,0,1,0.551780514,-775,-209,0.16097560975610023,0.011037165535964124,0.12195121951208417,4.618072250917422,60.609756097561,25
9144.62969,1.541627186,1,120,1,0,1,0.526348339,-933,-208,-0.0071544715447123585,0.008387785610750697,-0.40650406504065034,4.739565458179616,-62.276422764227654,25
9147.554637,1.508158095,1,121,0,0,-1,0.461881903,-892,-208,-0.0667479674796702,0.006000859215364951,-0.2439024390244457,3.654469283846975,-2.0325203252032558,25
9150.57118,1.474911317,1,122,1,0,1,0.594435201,-858,-208,-0.0038211382113838145,0.011430211963119241,0.04065040650407422,4.959016382248698,75.32520325203261,25
9153.387599,1.383286006,1,123,1,0,1,0.427505732,-767,-209,0.10016260162601519,0.010630839096868178,-0.7317073170732445,4.9802969579812215,0.6097560975608838,25
9156.512381,1.541638015,1,124,0,0,1,0.822728136,-925,-209,0.11861788617886324,0.029085472379686235,2.2764227642276977,4.549577805257545,-0.569105691056949,25
9159.520592,1.358212085,1,125,1,1,1,0.548789102,-741,-208,0.03861788617885976,0.01597597177851733,0.6504065040650961,5.605335833619313,-57.47967479674792,25
9162.303774,1.54156664,1,126,1,1,-1,0.506821219,-925,-209,-0.15211382113821342,0.009639547729448637,-0.8943089430895418,4.643052346414868,-63.53658536585364,25
9165.278698,1.458206568,1,127,1,1,-1,0.516654625,-841,-208,0.10658536585365412,0.015080807740717758,1.1666666666666952,,3.7804878048780295,25
9168.095195,1.558175107,1,128,0,1,-1,0.443103328,-941,-208,-0.08276422764227612,0.02428160085051699,-1.2195121951219974,6.717533485633793,3.008130081300804,25
9171.020026,1.458243992,1,129,0,1,-1,0.445257712,-842,-208,-0.09569105691056887,0.009318080508549476,0.16260162601629718,4.711240063236016,3.9430894308943283,25
9173.93642,1.458277038,1,130,1,1,-1,0.541626342,-841,-208,0.051626016260162506,0.01063021731946739,0.0,5.28330191573322,-2.2357723577235777,25
9176.777958,1.408336059,1,131,1,1,-1,0.463691103,-792,-209,-0.031626016260158235,0.010488750193736697,0.5284552845527346,5.660195065804676,2.682926829268302,25
9179.486142,1.416662073,1,132,0,1,-1,0.384516331,-800,-208,0.04520325203252145,0.015388420646256005,-1.8292682926829733,4.990572114869056,3.008130081300804,25
9182.244288,1.566736001,1,133,1,1,-1,0.420862175,-950,-208,-0.17284552845528625,0.030884893730072156,-2.1951219512195492,5.731563164882976,0.7317073170731998,25
9185.060793,1.358408948,1,134,0,1,-1,0.328411551,-742,-208,-0.02999999999999721,0.018309477385379237,-0.8536585365852827,5.00842043293069,59.43089430894311,25
9187.794088,1.566498434,1,135,1,0,1,0.448540837,-950,-209,0.08430894308942946,0.01601481566677459,-1.0975609756097284,4.73712427055539,-1.2195121951220067,25
9190.710529,1.39165483,1,136,1,0,-1,0.435589016,-775,-208,0.00943089430893895,0.008895661376643523,0.4878048780486603,3.4774516110484135,-76.78861788617888,25
9193.435375,1.399952906,1,137,1,1,-1,0.414369178,-783,-208,-0.01317073170731443,0.008487275316003491,0.20325203252032525,5.009410141552574,53.29268292682928,25
9196.1519,1.524939131,1,138,0,1,1,0.400196434,-917,-209,0.06634146341463805,0.011981875399635904,-0.7723577235771802,5.411239444648267,14.471544715447159,25
9199.051724,1.499999789,1,139,0,1,-1,0.456048592,-883,-208,-0.0077235772357636704,0.01659731754927443,0.6410256410255926,,-68.49593495934964,25
9202.018199,1.508279914,1,140,1,1,-1,0.548444755,-892,-209,-0.11439024390244489,0.016326693159104122,-1.3008130081301,5.3913535504510435,59.22764227642279,25
9204.793154,1.416493057,1,141,1,0,1,0.349305728,-800,-209,0.029268292682929135,0.007271765780487125,-0.16260162601629702,4.739914096633601,75.24390243902441,25
9207.651266,1.541560071,1,142,0,0,1,0.523623963,-933,-208,0.11024390243902245,0.007860573635949058,0.40650406504065034,4.4748694217957,-2.317073170731725,25
9210.526165,1.574825195,1,143,1,0,1,0.412874167,-967,-208,0.1482926829268313,0.017193920656109366,0.708333333333305,,4.268292682926829,25
9213.792643,1.524907541,1,144,1,0,1,0.766857858,-908,-208,0.013902439024391556,0.020483610359111913,1.3821138211382484,4.698244483082612,-7.601626016260091,25
9216.617466,1.56657861,1,145,0,1,1,0.384172348,-950,-208,0.19203252032519608,0.032758881122812576,2.520325203252051,4.101059933379356,-68.41463414634153,25
9219.517284,1.474904581,1,146,0,1,-1,0.413077569,-858,-208,0.025365853658535047,0.011866020074758298,-0.5691056910569475,4.751404814336287,-64.51219512195118,25
9222.467088,1.458226662,1,147,1,1,-1,0.557648253,-841,-208,0.0545528455284578,0.016430811841310723,-1.3333333333333048,,3.902439024390208,25
9225.35037,1.43314456,1,148,0,1,-1,0.503224119,-816,-208,0.0616260162601693,0.02403480852061544,0.29166666666659075,,1.2601626016260257,25
9228.108536,1.416487986,1,149,1,1,-1,0.405147274,-800,-209,0.09325203252032153,0.012939350687696121,-0.24390243902444586,5.589393939271501,-2.2764227642276507,25
9230.858338,1.491491876,1,150,1,0,-1,0.415772121,-875,-208,-0.059593495934960605,0.006212999406355636,-0.1626016260162048,3.468887618159949,56.869918699187075,25
9238.882849,1.533322254,1,151,1,0,1,0.540665714,-916,-208,-0.040325203252027646,0.018733796179826446,-1.4227642276423227,4.722100716574664,67.47967479674787,25
9241.915951,1.5083788,1,152,0,0,1,0.581608978,-892,-208,0.0960162601626022,0.008130081300812752,-0.5284552845527809,4.999173703948704,3.048780487804971,25
9244.857478,1.55006629,1,153,0,0,1,0.51790753,-933,-208,0.1696747967479735,0.021935555989402312,1.666666666666722,6.807456457049869,-63.90243902439031,25
9247.82404,1.349904297,1,154,0,1,-1,0.494940427,-742,-209,-0.02146341463414743,0.012777425728050018,-0.4878048780486604,6.238744905817861,-79.10569105691053,25
9250.89048,1.416614469,1,155,1,1,-1,0.800891579,-800,-209,0.05813008130080995,0.008508276716716369,0.1626016260162047,4.880758055220466,58.86178861788616,25
9253.723741,1.358254289,1,156,0,0,1,0.499124604,-741,-208,0.007886178861788285,0.011868804937167382,-0.5691056910568553,5.780653605846276,77.92682926829268,25
9256.481949,1.383236763,1,157,1,0,1,0.4839214,-766,-208,0.12902439024390258,0.022888453149860596,1.869918699186955,6.194620469215246,-55.04065040650405,25
9259.264995,1.516630888,1,158,0,0,-1,0.486021285,-900,-209,0.0965853658536535,0.010764915361323955,0.32520325203250183,4.002362313869423,-75.0,25
9262.339838,1.39995463,1,159,0,1,-1,0.641537106,-784,-209,-0.010081300813006355,0.005372009280221676,-2.166288828536891e-17,2.6798454835527714,5.813008130081328,25
9265.414677,1.55004262,1,160,1,1,-1,0.754852781,-942,-209,0.05772357723577512,0.008864398810041215,-0.24390243902435324,3.7820173494675737,9.146341463414588,25
9268.306239,1.34991121,1,161,0,1,-1,0.427826744,-734,-209,0.08991869918699494,0.014650397480664724,-0.20325203252032517,6.957041255348497,53.57723577235774,25
9271.089333,1.566722601,1,162,1,1,1,0.518788834,-950,-208,0.029593495934961824,0.0128408965612221,-0.12195121951213031,8.118284123763699,-2.3170731707317183,25
9274.097577,1.424898245,1,163,0,1,-1,0.528778131,-809,-209,-0.08869918699187374,0.02034405629689312,-2.032520325203252,3.9045556590444823,-8.089430894308927,25
9276.855759,1.474895059,1,164,0,1,1,0.413363887,-867,-208,-0.03585365853658807,0.014615616091130202,1.5040650406504712,5.3698556152938,13.617886178861825,25
9279.738875,1.366701098,1,165,1,1,-1,0.492526219,-750,-208,0.10308943089430604,0.007623224825841153,0.853658536585329,4.15032488393489,-3.861788617886227,25
9282.488761,1.541557511,1,166,1,1,1,0.462516002,-925,-208,0.014227642276421284,0.006126219913426083,0.16260162601620481,3.603011350595722,65.8130081300813,25
9285.271923,1.383258258,1,167,0,1,1,0.321007956,-767,-209,-0.06951219512194956,0.022511371528769312,-1.7479674796748246,4.951680061883922,5.081300813008131,25
9288.038447,1.549914027,1,168,1,0,1,0.472349907,-934,-209,-0.03048780487804675,0.01231807932781721,-0.772357723577319,5.233019525773759,-12.317073170731687,25
9291.013289,1.516532737,1,169,1,0,1,0.507738708,-900,-208,-0.014146341463414338,0.008218221413207934,0.487804878048799,5.337446361681393,-63.33333333333332,25
9293.979756,1.391640212,1,170,0,0,-1,0.534417772,-775,-208,-0.12658536585366134,0.02348453882911344,-1.5833333333334092,,-71.82926829268294,25
9296.729639,1.574892566,1,171,1,1,-1,0.437372617,-958,-208,0.09756097560975314,0.022855218845775998,1.6666666666666758,3.8956580652716286,2.1951219512195026,25
9299.796197,1.391538337,1,172,0,1,-1,0.576143906,-775,-208,0.08658536585366047,0.007001317119223194,-0.12195121951222285,4.345982849074428,6.463414634146333,25
9302.554423,1.45817896,1,173,0,1,-1,0.445048682,-841,-208,0.03414634146341768,0.0318439831419349,2.1138211382114007,4.842007778643265,1.1382113821138022,25
9305.687553,1.341500709,1,174,1,1,-1,0.756145953,-724,-208,0.016504065040645378,0.007032402837498006,0.04065040650402811,4.023774281513464,62.31707317073179,25
9308.34571,1.574885255,1,175,1,0,1,0.395344239,-959,-209,-0.039674796747968456,0.015025921155242396,1.1382113821138027,4.958349892576557,74.39024390243893,25
9311.303894,1.483225166,1,176,1,0,1,0.465783079,-867,-208,-0.033821138211387214,0.007503496882365698,-0.20325203252027896,3.8289144192897258,-69.43089430894307,25
9314.211994,1.474944248,1,177,1,0,-1,0.510721797,-859,-209,0.1432520325203196,0.018916726831967948,1.7073170731707503,3.5016025150176184,-65.8130081300813,25
9317.020218,1.574932979,1,178,1,0,-1,0.418802838,-959,-209,-0.004634146341463821,0.012943947350738762,0.6504065040650038,6.245627725730205,63.17073170731714,25
9320.278289,1.508349504,1,179,0,0,1,0.766203233,-892,-208,0.06447154471544693,0.012481727010098236,0.853658536585375,4.74444406519249,67.60162601626016,25
9323.069908,1.499905211,1,180,0,1,1,0.367119241,-883,-208,-0.003821138211376883,0.009210345165121122,-0.2845528455284275,3.207005353384471,-50.162601626016304,25
9325.894718,1.399953903,1,181,0,1,-1,0.407594136,-784,-209,0.020081300812997166,0.0077734802060499516,0.28455284552838134,4.384971239077118,-63.048780487804876,25
9328.711221,1.333228034,1,182,0,1,-1,0.49991956,-725,-208,0.02105691056910595,0.008555534524277235,-0.40650406504065045,4.144747023262061,-4.227642276422755,25
9331.444312,1.483305617,1,183,0,0,-1,0.485824907,-867,-209,0.17113821138211038,0.018360308602660077,1.1382113821138027,4.889552830489549,55.73170731707318,25
9334.294279,1.4998905,1,184,1,0,1,0.451472029,-883,-208,-0.08821138211382447,0.010620263930281757,-0.375000000000038,,8.577235772357731,25
9337.260708,1.458262061,1,185,0,1,-1,0.551677026,-842,-209,0.0004878048780579495,0.013575531756171075,0.8943089430894032,4.98096051097265,-5.813008130081293,25
9340.018855,1.40829512,1,186,1,0,1,0.380278617,-792,-209,-0.1007317073170676,0.009543759733872979,-0.28455284552852006,5.665739271606277,11.260162601626023,25
9342.768816,1.483268158,1,187,0,1,-1,0.423418235,-866,-208,-0.028861788617883223,0.00965256720628002,-0.5284552845528732,4.089762226148072,-15.365853658536674,25
9345.910189,1.37505291,1,188,1,0,1,0.742938042,-758,-208,-0.0979674796747924,0.034403599244184374,-2.3577235772357543,6.717041484791742,11.178861788617867,25
9348.743369,1.525068638,1,189,0,1,-1,0.542840045,-908,-208,0.037804878048778544,0.009880641367427546,-0.7317073170731985,7.100219284447357,-9.796747967479638,25
9351.651536,1.433302546,1,190,1,0,1,0.462526884,-825,-208,-0.04479674796747719,0.0077231493249024985,-0.528455284552827,4.57457069809239,64.22764227642269,25
9354.576399,1.558316676,1,191,1,0,1,0.57405669,-941,-208,0.05951219512194886,0.007908358718249088,-0.487804878048799,5.717418619381294,-55.08130081300804,25
9357.50121,1.366689021,1,192,0,1,-1,0.453139088,-750,-208,0.047804878048786734,0.008636274292610506,0.1219512195121767,5.526362588141637,-7.1138211382114,25
9360.376109,1.383241436,1,193,1,0,1,0.592608172,-775,-208,0.05967479674796562,0.01464859268885252,0.28455284552838134,6.114340057549021,16.422764227642215,25
9363.859191,1.416702545,1,194,0,0,-1,1.180829316,-800,-208,0.1114634146341498,0.04726745645457724,2.7642276422764045,7.673995755362906,-11.341463414634147,25
9367.000738,1.491652692,1,195,0,0,1,0.808532441,-875,-208,-0.016666666666666295,0.014163152332642029,-1.0569105691057004,6.6540133737808045,63.33333333333337,25
9371.408821,1.474881778,1,196,1,0,1,2.000833701,-858,-208,-0.13642276422763866,0.03926501021477466,-2.2764227642276977,5.3312508327656305,-57.52032520325203,25
9374.625358,1.533245862,1,197,0,0,-1,0.825582713,-917,-208,-0.09317073170731663,0.0165206772896352,-1.0975609756097284,4.349403536616269,-14.146341463414656,25
9377.541892,1.366529521,1,198,1,0,1,0.462655335,-750,-209,0.0044715447154473386,0.013743925884225636,1.5040650406504712,4.810851527383937,66.91056910569107,25
9380.374945,1.550001014,1,199,0,0,1,0.552101274,-933,-208,-0.09560975609755933,0.015934959349593707,-1.0569105691057468,3.0963764459415923,-0.8536585365853288,25
9383.216504,1.583207512,1,200,0,1,1,0.375058767,-967,-209,0.10788617886178496,0.008004724627738337,-0.04065040650402809,3.6716116853910403,-59.67479674796746,25
9398.040749,1.349844272,1,201,0,1,-1,0.834767322,-734,-209,-0.0004878048780516643,0.005645579033904645,-0.2439024390244457,3.2626858025724075,-13.861788617886182,25
9400.773921,1.416536536,1,202,1,0,1,0.463357034,-801,-209,-0.025691056910566903,0.01570179505351874,0.44715447154467824,6.974832712041365,71.01626016260158,25
9403.573702,1.474932159,1,203,1,0,1,0.464027215,-859,-209,0.013170731707316002,0.011482138891212124,-0.7723577235771805,3.7557103942928336,0.813008130081301,25
9406.515168,1.500002265,1,204,0,0,1,0.549309355,-884,-209,0.034308943089428716,0.023917090802759722,-0.21367521367516532,,-56.54471544715443,25
9409.423452,1.458246541,1,205,0,0,-1,0.486228718,-841,-208,0.009837398373978491,0.02100741270893815,1.7479674796748244,3.8773754763123476,-2.398373983739941,25
9412.28991,1.549933818,1,206,0,0,1,0.491597682,-933,-208,0.162032520325195,0.01435506240932894,0.2439024390244457,6.662203542723865,63.17073170731714,25
9415.489658,1.350041953,1,207,1,1,1,0.733420711,-734,-209,0.013577235772358868,0.031772915257525736,-2.7642276422764045,4.722800546251131,-4.3495934959350695,25
9418.414551,1.35830345,1,208,0,0,1,0.655471726,-742,-208,0.07235772357723234,0.012649006129776503,0.6097560975610219,5.241538510473256,-55.24390243902429,25
9421.231095,1.583253797,1,209,0,1,-1,0.538237218,-966,-208,-0.010162601626016537,0.013056313202019748,-0.7317073170731521,5.232387938115203,-77.80487804878052,25
9424.414258,1.533276017,1,210,1,0,-1,0.679620168,-916,-208,-0.0013008130081256632,0.008094229895709277,-0.3749999999999431,,-3.0081300813008043,25
9427.480761,1.533206935,1,211,1,0,-1,0.611893343,-917,-209,0.035853658536584274,0.00714707674010924,0.772357723577319,3.8271877385171793,68.45528455284557,25
9430.680592,1.49153725,1,212,0,1,1,0.745065324,-876,-209,0.08455284552845288,0.01677281289160832,1.4227642276421841,4.946337721758179,76.1382113821138,25
9433.788671,1.425027212,1,213,1,0,1,0.698011397,-809,-209,-0.011219512195121545,0.009870601763106359,1.0569105691057006,5.8057547560500256,-6.5040650406504055,25
9436.621936,1.533243611,1,214,0,0,1,0.489473078,-916,-208,0.08504065040650234,0.025466498271372564,1.7479674796748708,5.934959349593098,-9.79674796747973,25
9439.613342,1.549977999,1,215,1,1,1,0.539338102,-933,-208,-0.018048780487804172,0.013830221787866389,-1.2601626016260716,6.07964848645222,-58.21138211382111,25
9442.63826,1.416530048,1,216,1,1,-1,0.555338695,-801,-209,-0.00902439024390024,0.017698199179966307,0.25641025641021753,,-22.07317073170735,25
9445.554767,1.374994643,1,217,1,1,1,0.583924155,-758,-208,-0.0026016260162542845,0.01285992812338004,0.08130081300805636,5.678266696011336,24.756097560975654,25
9448.479575,1.566492631,1,218,0,1,-1,0.629441833,-951,-209,-0.03195121951219749,0.019370078655530153,-0.8130081300813471,4.133968467126547,-69.22764227642273,25
9451.504372,1.541567112,1,219,1,1,-1,0.53718374,-934,-209,0.034796747967478524,0.008353831620464693,-0.16260162601629702,4.908441901828919,66.58536585365852,25
9454.545853,1.49161327,1,220,0,0,1,0.585948697,-876,-209,0.012764227642273501,0.015078616113242873,-0.650406504065096,5.032119715591375,11.707317073170755,25
9457.470724,1.458313303,1,221,1,1,-1,0.513682437,-842,-209,0.027154471544722735,0.0064999987288802885,0.528455284552827,4.377805324209073,-69.39024390243905,25
9460.428888,1.516625544,1,222,0,1,-1,0.574844714,-909,-209,0.03926829268292855,0.014869827574431756,-0.5833333333332291,,14.024390243902438,25
9463.387007,1.524967741,1,223,1,1,-1,0.52714929,-908,-208,0.00829268292682986,0.009915366626609386,0.040650406504027986,7.1234545690294455,59.51219512195125,25
9466.336951,1.349844874,1,224,1,0,1,0.503826261,-733,-208,-0.05349593495935353,0.010360671428991431,0.6504065040650959,4.430707835264861,68.08943089430889,25
9469.045132,1.516573716,1,225,1,0,1,0.441561989,-900,-209,0.050569105691057784,0.022798464382225672,1.791666666666695,,-11.46341463414636,25
9472.044857,1.416631231,1,226,0,0,1,0.566669932,-801,-209,-0.011951219512190907,0.011919375750271334,-0.6250000000000002,,-10.121951219512226,25
9474.903118,1.46654306,1,227,1,0,1,0.524236074,-850,-209,-0.04260162601625886,0.0068224898609453855,-0.20325203252027896,4.232330108884384,-59.552845528455194,25
9477.777917,1.491685808,1,228,1,0,-1,0.494695941,-875,-208,0.04756097560975822,0.012296059242958084,1.0162601626015333,5.370778720297259,-68.53658536585367,25
9480.611105,1.44990726,1,229,0,1,-1,0.427521581,-834,-209,0.05682926829268578,0.009366898089913653,-0.28455284552842763,5.032448086482884,66.82926829268287,25
9483.577673,1.349894788,1,230,1,0,1,0.603701858,-733,-208,-0.028455284552844143,0.008757875128127075,-0.40650406504065045,5.293301076636863,69.87804878048779,25
9486.419058,1.425044913,1,231,0,0,1,0.577552351,-808,-208,0.0026829268292702896,0.012321298478356448,-0.5691056910569474,4.562272470438543,0.04065040650412235,25
9489.252238,1.549992745,1,232,0,0,1,0.492407786,-933,-208,0.0401626016260216,0.016321834265144202,1.1382113821138025,3.614916109823963,-67.43902439024389,25
9492.252186,1.483268852,1,233,0,1,-1,0.535558672,-866,-208,-0.02951219512195276,0.007343223370781892,-0.9349593495935699,4.4789296002729655,-77.03252032520325,25
9495.276902,1.416679901,1,234,1,1,-1,0.62555068,-800,-208,-0.07154471544715309,0.007752193457600328,-0.32520325203250183,3.3981405762611177,63.13008130081295,25
9498.235111,1.499916859,1,235,1,0,1,0.620115023,-884,-209,0.12658536585365976,0.013542870681232508,0.8130081300813009,5.786653544479307,77.47967479674801,25
9501.251572,1.533361601,1,236,0,0,1,0.602704045,-916,-208,0.031300813008130736,0.01028575782651423,0.48780487804879896,4.941992818025698,-0.4065040650407424,25
9504.34307,1.508286228,1,237,1,1,1,0.640593949,-892,-209,0.06349593495935238,0.02009594278748671,1.6666666666666194,,-59.26829268292672,25
9507.417908,1.45836427,1,238,0,1,-1,0.647579312,-841,-208,0.07821138211382045,0.016752702779937862,0.6097560975609295,6.330509614006677,-57.88617886178866,25
9510.409424,1.47495477,1,239,1,1,-1,0.615110618,-858,-208,-0.05943089430894016,0.012834203096371342,-0.975609756097598,3.012521514414485,83.29268292682927,25
9513.234329,1.458293625,1,240,0,1,1,0.429306015,-841,-208,-0.640650406504062,0.019447385592884017,-0.7692307692307012,,72.31707317073177,25
7699.985339,1.374880444,1,1,1,0,-1,1.153531855,-759,-209,0.06073170731707571,0.013951086852895114,1.0162601626016259,5.28173783685834,67.47967479674791,50
7702.743454,1.366626982,1,2,0,0,1,0.463901028,-751,-209,0.004065040650406412,0.010466039051547048,-0.2439024390243533,6.360457275172064,80.16260162601624,50
7705.443336,1.399926049,1,3,1,1,1,0.410807371,-784,-209,0.10674796747967726,0.008617119155925808,-0.32520325203250194,6.504319100729035,-10.08130081300811,50
7708.268215,1.549909527,1,4,1,1,1,0.494341629,-933,-208,-0.08512195121951206,0.009298197369428005,0.16260162601620481,5.004129433650062,-62.60162601626017,50
7711.317995,1.474996648,1,5,1,1,-1,0.566800684,-858,-208,-0.05268292682926938,0.008883764799771198,0.16260162601620481,6.426622284711607,-66.6260162601626,50
7714.13446,1.475011084,1,6,1,0,-1,0.415626274,-858,-208,0.06528455284552823,0.012120639757185464,-0.04065040650407439,6.306187060413368,60.528455284552884,50
7717.167636,1.39993901,1,7,0,0,1,0.638948694,-783,-208,-0.061544715447157845,0.011065276605430163,-0.2439024390244457,5.577259475168344,74.83739837398373,50
7720.050898,1.524965884,1,8,0,0,1,0.562451416,-908,-208,-0.16707317073170305,0.03031026899643506,-1.068376068376117,,-5.16260162601628,50
7722.992341,1.433300008,1,9,1,0,1,0.498143958,-817,-208,0.04788617886178518,0.009513932160208528,0.24390243902435324,4.960015948835733,-26.219512195121997,50
7725.758929,1.558198312,1,10,0,1,1,0.415993555,-941,-208,0.0021138211382114008,0.012052828390834932,0.9349593495934775,5.485244810872277,2.5203252032520527,50
7728.675319,1.475015033,1,11,1,1,1,0.437178901,-858,-208,-0.16634146341463554,0.01503603532798994,-1.747967479674686,6.136999826590241,-33.373983739837406,50
7731.625155,1.42502059,1,12,1,1,-1,0.554656404,-809,-208,-0.008780487804874592,0.00907588035420532,-0.40650406504065045,4.193498772133078,-10.203252032520284,50
7734.741639,1.466629807,1,13,1,0,1,0.775141234,-850,-208,-0.10642276422764078,0.013731416094376612,-1.260162601626118,5.864094130687354,75.56910569105696,50
7737.483188,1.524874027,1,14,1,0,1,0.353215517,-909,-209,-0.09666666666666959,0.01958590413931586,-0.2564102564102661,,-0.32520325203259337,50
7740.324654,1.350033199,1,15,0,0,1,0.402566896,-733,-208,-0.026016260162602275,0.01018112133678143,-0.40650406504065034,4.429215763211826,-1.3008130081300062,50
7742.91618,1.45829392,1,16,0,0,1,0.327933537,-842,-209,0.14056910569105405,0.02775467345044641,2.3333333333333903,,-58.739837398374064,50
7745.732776,1.549864518,1,17,0,1,-1,0.43644172,-934,-209,0.08365853658536149,0.018122970642487055,0.2032520325202789,6.8589656274458735,-76.09756097560972,50
7748.682556,1.400020321,1,18,1,0,-1,0.47935362,-783,-208,0.10300813008130372,0.026985992111511956,3.0341880341880922,,66.95121951219514,50
7751.54076,1.433237622,1,19,0,1,1,0.544012628,-817,-209,-0.15878048780487874,0.022685694967614897,-0.3070175438596192,,68.65853658536584,50
7754.53226,1.366663787,1,20,1,1,1,0.636498084,-750,-208,-0.0058536585365878985,0.012029223894752238,0.24390243902449196,6.3177061762348865,0.6504065040650043,50
7757.265474,1.516595679,1,21,0,0,1,0.44706258,-900,-208,0.09569105691057109,0.012280460220162253,0.44715447154472454,4.371383758949684,-1.7886178861788065,50
7760.340258,1.383256439,1,22,0,1,1,0.63687489,-767,-209,-0.04235772357723274,0.014232983898548846,-0.9756097560975056,5.726082692572786,1.0162601626016265,50
7763.031819,1.399885279,1,23,0,1,1,0.392359067,-784,-209,-0.1060162601626019,0.014848030492901763,-0.36585365853653,5.576666874680431,0.4065040650405566,50
7765.8566,1.50826937,1,24,1,1,1,0.508340289,-900,-208,0.03593495934958873,0.014176679924614745,0.8536585365854215,6.848356984720975,-0.5284552845527337,50
7768.964707,1.508294879,1,25,0,1,1,0.685952476,-892,-209,-0.0062601626016260525,0.010944551056666387,-0.5691056910569936,6.621900063185881,-59.593495934959364,50
7771.831223,1.424983561,1,26,0,0,-1,0.44282877,-817,-208,0.011138211382113858,0.011448124496963854,-0.48780487804879896,7.382722656745691,-66.38211382113822,50
7774.572853,1.433174009,1,27,0,0,-1,0.395958822,-816,-208,0.0316260162601587,0.02265274677268546,1.2916666666665815,,-12.113821138211408,50
7777.364245,1.458289799,1,28,1,0,-1,0.438354396,-850,-208,-0.04650406504065257,0.022412202657176045,-1.951219512195057,6.604408881192098,56.62601626016263,50
7780.197468,1.52493019,1,29,1,0,1,0.461418771,-917,-209,0.04813008130080777,0.014347232584058555,1.2195121951219048,5.607104357352579,21.38211382113823,50
7783.089029,1.558264462,1,30,1,0,-1,0.449173315,-942,-208,-0.09788617886178841,0.01973785500553314,-0.6578947368420555,,-45.40650406504065,50
7786.222193,1.358250324,1,31,0,0,-1,0.653973786,-742,-208,0.004634146341461419,0.019438206604513456,-0.5982905982904915,,-9.024390243902458,50
7789.138625,1.424888047,1,32,0,0,-1,0.63140705,-808,-208,-0.01650406504065157,0.02355620031617958,-1.341463414634174,6.908416690143298,-21.21951219512193,50
7792.046761,1.34994493,1,33,0,0,-1,0.568764904,-733,-208,0.005528455284554657,0.011556160592670419,0.48780487804879885,7.555072439869764,8.414634146341434,50
7794.763277,1.42491341,1,34,0,0,-1,0.447993264,-817,-209,-0.06105691056910986,0.027770863043116868,-1.7073170731707503,5.8375455741568665,9.349593495935006,50
7797.513241,1.39989622,1,35,0,0,-1,0.407888889,-783,-208,0.018048780487801865,0.014275181900627409,-0.36585365853657603,5.133874365981762,60.28455284552839,50
7800.171393,1.391556001,1,36,0,1,1,0.339299216,-775,-208,-0.05170731707317721,0.016278445006478456,-1.341463414634128,5.880696364236137,3.1300813008130786,50
7802.94623,1.508272319,1,37,0,1,-1,0.466795248,-891,-208,-0.04804878048780296,0.009599006271964451,0.3252032520325942,5.298917312780766,-70.16260162601627,50
7805.787644,1.483306369,1,38,0,1,-1,0.415486896,-867,-209,0.005447154471550945,0.011789458899072633,0.4999999999999717,,-1.3821138211382018,50
7808.78748,1.566575726,1,39,1,1,-1,0.598276031,-950,-209,-0.12382113821137736,0.028023200306827704,-2.2764227642276054,5.723484847739336,-3.4146341463414536,50
7811.629042,1.549970405,1,40,0,1,-1,0.35531992,-933,-208,-0.010894308943089598,0.018076957424166207,0.9583333333333144,,63.73983739837401,50
7814.645558,1.499826816,1,41,0,0,1,0.546409297,-884,-209,0.07520325203251596,0.014723305631986644,0.4878048780487064,5.4380460189236235,16.585365853658427,50
7817.4787,1.358320265,1,42,1,0,-1,0.411686791,-742,-208,0.1179674796747928,0.011168139721297859,0.8943089430894031,4.554659917212796,-11.951219512195067,50
7820.420178,1.358395013,1,43,0,0,1,0.664084947,-741,-208,0.007967479674795972,0.011429055351736567,-0.325203252032548,5.349815894751899,4.2276422764227455,50
7823.320065,1.383308728,1,44,0,0,-1,0.619745609,-767,-208,-0.006178861788617628,0.01812041741786612,1.707317073170704,7.7868609794329435,-11.260162601626035,50
7826.203213,1.424927992,1,45,0,0,1,0.583807991,-809,-209,-0.051626016260159925,0.017521787047836464,-1.4634146341463043,6.858965627445602,15.894308943089438,50
7829.053018,1.433311679,1,46,0,0,-1,0.515573678,-817,-209,-0.02471544715447153,0.01787102092371444,1.7083333333333903,,-5.040650406503995,50
7831.969578,1.508289827,1,47,1,0,1,0.567122839,-892,-208,0.0483739837398361,0.021599409024849747,1.08333333333339,,68.41463414634143,50
7834.802748,1.383330549,1,48,1,1,1,0.409556143,-775,-208,-0.007967479674796711,0.010632082542582558,-0.7723577235771805,5.423745355594811,-4.2276422764228,50
7837.51087,1.524960849,1,49,1,1,1,0.405555128,-917,-208,-0.08414634146341639,0.00960244862684348,-0.6910569105690779,4.799158826419836,-58.983739837398346,50
7840.394042,1.491689811,1,50,0,1,-1,0.442004246,-875,-208,0.00227642276422816,0.007506139113875433,0.9349593495934775,5.180335714495578,-16.34146341463416,50
7938.263579,1.499944785,1,51,0,0,1,1.058972414,-892,-208,0.04325203252032607,0.019762955081384603,1.5040650406503788,6.146416741484418,-4.227642276422757,50
7941.19674,1.39995541,1,52,1,1,-1,0.512276471,-784,-209,0.06536585365853823,0.008237501724546424,-0.45833333333324794,,-76.09756097560977,50
7943.9577,1.38051325,1,53,1,0,-1,0.446416678,-764,-208,-0.0461788617886173,0.011588717244541007,-0.2439024390243069,5.391966517714326,-3.8617886178861798,50
7946.688234,1.474821511,1,54,0,1,-1,0.432631874,-859,-209,-0.02406504065040717,0.0162666653663736,0.7500000000000285,,-3.6178861788617787,50
7949.612988,1.574892761,1,55,1,0,-1,0.529718664,-958,-208,0.06406504065039992,0.013733822708148513,0.853658536585329,5.891084063138033,62.84552845528456,50
7952.596154,1.424906794,1,56,1,1,1,0.488771829,-808,-208,0.10219512195121519,0.022489926946650977,1.500000000000057,,15.16260162601629,50
7955.312708,1.549891586,1,57,1,0,-1,0.367491401,-934,-209,-0.14170731707317133,0.012299821560375368,-1.01626016260158,3.5855409871869535,-9.674796747967509,50
7958.512486,1.333245923,1,58,0,1,1,0.732829798,-717,-209,0.05243902439024927,0.013311999589428665,0.772357723577319,5.154753653381484,17.886178861788654,50
7961.312291,1.35824537,1,59,1,1,-1,0.549538135,-750,-209,-0.06577235772358092,0.01089430894308902,-0.3658536585365761,5.9527520351171646,-11.829268292682993,50
7964.195512,1.54994878,1,60,1,0,1,0.605124433,-933,-208,-0.1480487804878073,0.018084999914065356,0.7692307692307984,,66.34146341463418,50
7967.270379,1.349899782,1,61,0,1,1,0.610331731,-734,-209,-0.0017886178861781599,0.008401958167651463,-0.2439024390244457,4.285871659544078,-60.121951219512226,50
7970.011937,1.333210138,1,62,0,0,-1,0.471881545,-716,-208,-0.09715447154471452,0.024251366133403344,1.788617886178853,5.313864923046668,-10.731707317073159,50
7972.770001,1.483284265,1,63,0,0,1,0.507764377,-867,-209,0.0032520325203284385,0.010062268948651521,8.665155314147564e-17,5.472275528333011,14.796747967479648,50
7975.703151,1.43331273,1,64,1,1,-1,0.534545283,-817,-209,-0.09528455284552535,0.012257294094136366,-0.6666666666666761,,-72.3983739837398,50
7978.511338,1.524928999,1,65,0,0,-1,0.460279474,-908,-208,0.08300813008129611,0.014267308237412069,0.6097560975609295,7.322942542064861,55.81300813008128,50
7981.369484,1.516657331,1,66,1,0,1,0.4176985,-900,-209,-0.07520325203251597,0.010885204301325913,-0.16260162601620465,4.475238681145641,12.682926829268315,50
7984.227725,1.391650698,1,67,1,1,-1,0.415004831,-775,-208,-0.0554471544715503,0.009070780930719757,0.1626016260161588,5.568067080174092,-0.4878048780488027,50
7986.985943,1.549926665,1,68,0,1,1,0.449236569,-933,-208,0.08048780487804821,0.011893283608396489,-1.138211382113895,4.604095978786673,11.910569105691073,50
7989.952407,1.449906682,1,69,0,1,-1,0.501043981,-834,-209,-0.0696747967479703,0.01179058015628193,-0.7317073170731524,6.07148897601581,-67.03252032520331,50
7992.902247,1.458236899,1,70,0,1,-1,0.57033205,-842,-209,0.07902439024390377,0.010161625969426862,-0.650406504065096,5.7603218159083625,10.731707317073209,50
7995.743731,1.341676127,1,71,0,1,-1,0.477394934,-734,-209,0.04406504065040922,0.010153166351706811,0.8130081300813471,6.555185283024728,-4.308943089430903,50
7998.4961,1.555724237,1,72,1,1,-1,0.497174071,-940,-209,-0.042601626016259025,0.009395785504515919,0.6097560975609293,2.673672138602829,47.88617886178864,50
8001.426702,1.358297979,1,73,1,0,1,0.457588338,-742,-209,0.09504065040650801,0.012596642077632293,0.8943089430894497,7.242392148637095,8.333333333333274,50
8004.159882,1.483293041,1,74,1,0,-1,0.453129153,-867,-209,0.12138211382114159,0.013562866647897492,0.2083333333333332,,-6.8292682926829045,50
8007.134824,1.383261274,1,75,0,0,1,0.571612004,-766,-208,0.028211382113819048,0.004838593826460958,-0.325203252032548,3.6295145179757355,71.13821138211381,50
8009.859598,1.374935285,1,76,0,0,1,0.424786683,-767,-208,0.12829268292683088,0.008048369867163833,-0.36585365853657614,2.9335965126291343,2.3170731707317254,50
8012.801191,1.383225137,1,77,0,0,1,0.652479414,-766,-208,-0.048130081300811284,0.010860279336258043,-0.975609756097413,4.065447134148099,-67.47967479674796,50
8015.534327,1.341548769,1,78,1,0,-1,0.430621089,-725,-209,0.013739837398374425,0.014197645497849002,-0.8943089430894494,6.565260888852635,-77.7642276422765,50
8018.167433,1.358276969,1,79,1,1,-1,0.371123519,-741,-208,-0.0329268292682876,0.00808524220517172,0.5284552845528733,3.2601524643518474,1.138211382113895,50
8020.95899,1.433256066,1,80,1,1,-1,0.512968153,-817,-209,0.026422764227640606,0.009600383362033098,0.12195121951222285,5.262618644774832,61.95121951219507,50
8023.958874,1.566527636,1,81,1,1,1,0.645859232,-950,-209,0.015528455284551016,0.006316398243757725,-0.08333333333330498,,6.382113821138274,50
8026.842097,1.458088982,1,82,1,0,-1,0.40187346,-841,-208,-0.1526016260162629,0.020091666460023864,-1.2195121951219976,5.546360292946371,-8.048780487804912,50
8029.65851,1.458237122,1,83,1,0,1,0.443829764,-842,-209,-0.057804878048781885,0.010750783734940832,0.24390243902439948,5.744810025018057,14.39024390243898,50
8032.608304,1.458240287,1,84,0,1,-1,0.570012763,-841,-208,0.028130081300816075,0.028074808237249803,-2.601626016260199,6.758000182136652,-7.073170731707261,50
8035.383229,1.41654864,1,85,1,0,1,0.396410876,-800,-208,0.033495934959352595,0.00836964130837798,0.16260162601629718,4.990572114869259,81.66666666666669,50
8038.343881,1.330710455,1,86,0,0,1,0.631886694,-714,-208,0.08796747967479449,0.014216720546689024,1.0569105691057465,5.36924012378924,-2.9268292682926997,50
8041.157843,1.474973586,1,87,1,0,1,0.56586643,-858,-208,0.02983739837398341,0.013823529204949227,-1.0162601626016723,6.845943636869777,-4.918699186991926,50
8043.999365,1.558283374,1,88,0,0,1,0.446846415,-942,-209,-0.015691056910566575,0.008146325235691034,0.40650406504069664,3.2879118299007994,-61.09756097560969,50
8046.949175,1.533290246,1,89,0,0,-1,0.473743813,-917,-209,0.135609756097559,0.02304645032026271,2.1951219512194107,4.917187162613857,-66.99186991869925,50
8049.932428,1.558140911,1,90,0,0,-1,0.53275412,-942,-209,-0.019593495934954838,0.02135566697306918,-1.707317073170658,4.959016382248826,3.1707317073171017,50
8053.015605,1.424879902,1,91,1,1,-1,0.606504204,-808,-208,0.04317073170731949,0.015730814453350006,0.7264957264957946,,-2.642276422764227,50
8055.865331,1.491617792,1,92,1,1,-1,0.503296671,-876,-209,-0.08512195121951,0.008805294677439337,0.040650406504074255,3.9729403976817066,62.60162601626017,50
8058.740198,1.366638505,1,93,1,0,1,0.467061087,-750,-208,0.05845528455284301,0.026152589958373305,1.7073170731707503,6.842080509729978,12.073170731707329,50
8061.498388,1.499851319,1,94,0,0,-1,0.470807792,-884,-209,0.09065040650406798,0.012493371895978484,9.254385875509597e-14,6.126489642426113,-78.29268292682927,50
8064.323234,1.541623259,1,95,0,0,-1,0.402867754,-925,-208,0.05943089430893766,0.00863244666564786,-0.48780487804879885,4.1848206541888615,62.3577235772358,50
8067.114757,1.441625782,1,96,0,1,1,0.335473564,-825,-208,0.04837398373983795,0.037518541475626735,1.9166666666666283,,15.406504065040536,50
8069.964604,1.508228699,1,97,1,1,-1,0.492135081,-892,-209,0.01772357723577805,0.02775181548310373,3.1300813008129804,4.135167471879678,-72.80487804878045,50
8072.84771,1.458286256,1,98,0,0,-1,0.455547424,-842,-209,0.12065040650406622,0.012894831800264527,-0.7317073170731061,4.213939644675644,-3.699186991869929,50
8075.639218,1.516689682,1,99,0,0,-1,0.41636892,-909,-209,-0.012276422764230802,0.012713638030700499,1.056910569105654,5.663989056065719,65.2439024390244,50
8078.814057,1.533277626,1,100,1,1,1,0.741911063,-917,-209,0.22983739837398315,0.027078907568647965,2.317073170731726,5.21720689662923,68.33333333333344,50
8088.196885,1.374930536,1,101,1,0,1,0.717590879,-759,-209,0.018699186991869364,0.01737366226195923,0.7723577235772264,6.7785086113381725,-10.69105691056918,50
8091.113394,1.408305079,1,102,0,1,1,0.62283723,-792,-208,0.03902439024390493,0.028905611983220978,2.032520325203252,5.72059696983776,4.105691056910534,50
8093.871536,1.566619638,1,103,0,0,1,0.431529477,-950,-209,-0.03983739837398707,0.007021114864190102,0.24390243902435332,4.471544715447108,1.869918699186955,50
8096.946357,1.558354375,1,104,0,1,1,0.587355209,-942,-209,-0.025365853658527376,0.00778961923057134,-0.609756097561068,5.202616831146736,-67.39837398373977,50
8100.029532,1.541689708,1,105,0,0,-1,0.609287336,-925,-208,0.01845528455284353,0.02834216773306372,2.520325203252051,5.335898153856987,-80.16260162601627,50
8102.979423,1.366626808,1,106,0,0,-1,0.488265109,-750,-208,0.07097560975609687,0.022062050830624434,0.4999999999999717,,65.16260162601624,50
8105.787582,1.333254491,1,107,0,0,1,0.521207001,-725,-208,0.0280487804878059,0.019652274954813143,1.196581196581177,,15.243902439024446,50
8108.654082,1.399922173,1,108,0,1,-1,0.618471748,-784,-209,0.10056910569105666,0.012770181408827455,0.8943089430894495,6.596146951345636,-72.1951219512195,50
8111.845614,1.524879504,1,109,1,1,-1,0.869794562,-908,-208,-0.03227642276423119,0.013584779560458875,-0.4065040650406505,7.154702509206146,-3.089430894308951,50
8114.912083,1.508207548,1,110,1,1,-1,0.625659175,-892,-209,0.05666666666666402,0.01088095286134707,-0.3252032520325018,4.216683733297357,-2.6422764227642284,50
8117.761981,1.499899312,1,111,1,0,-1,0.422019377,-883,-208,-0.06894308943089593,0.010791898215314035,-0.12195121951222292,6.196754154103787,-0.08130081300810224,50
8120.678409,1.42494877,1,112,1,1,-1,0.500932934,-808,-208,-0.005609756097565763,0.016909005556235153,-1.4227642276423227,7.095563097124609,65.60975609756096,50
8123.669914,1.41669905,1,113,0,0,1,0.651781361,-800,-208,0.030081300813009703,0.011728751832084336,0.569105691056809,7.321588489378383,8.821138211382122,50
8126.411472,1.433280367,1,114,0,1,-1,0.405638141,-816,-208,-0.12056910569106048,0.01320030805417941,-0.5284552845528732,4.0397587800992465,-82.84552845528458,50
8129.377941,1.533233979,1,115,1,1,-1,0.614912351,-917,-209,-0.003495934959346876,0.024812603221024934,-2.2357723577235773,7.1530856011620685,-3.658536585365853,50
8132.344388,1.524954047,1,116,0,0,-1,0.51762467,-917,-208,-0.12284552845528605,0.01604326887837325,-1.3414634146341742,5.764336577456503,72.64227642276424,50
8135.252614,1.416621444,1,117,0,0,1,0.463686157,-800,-208,0.004552845528455488,0.011733822750415079,-0.16260162601629713,5.676520342996022,82.8861788617886,50
8138.127402,1.341677287,1,118,1,0,1,0.542695043,-725,-208,0.03666666666666659,0.02692051495031336,-1.7479674796748708,5.126465941604937,-0.08130081300805475,50
8140.927336,1.333243077,1,119,1,0,1,0.543971698,-716,-208,-0.015040650406503047,0.01919870112600417,-0.6666666666666762,,-68.61788617886191,50
8144.018731,1.533291172,1,120,1,0,-1,0.839049887,-917,-209,-0.12268292682926663,0.030394763178221915,-2.3577235772357543,5.726082692572577,-10.731707317073127,50
8147.035326,1.4165924,1,121,0,1,1,0.56392253,-800,-208,0.08886178861788577,0.013422269322594353,-0.24390243902435302,5.041306015586121,17.886178861788622,50
8149.901782,1.499971503,1,122,0,1,-1,0.5202337,-883,-208,0.01780487804878158,0.02001387581315634,1.3008130081300997,3.990371119286983,-79.47154471544715,50
8152.751572,1.449956316,1,123,0,0,-1,0.435045326,-842,-209,0.0835772357723563,0.023850116949916532,-0.045045045045055326,,58.53658536585361,50
8155.568093,1.541616224,1,124,1,1,1,0.451839505,-933,-208,0.13430894308943472,0.013008130081301056,0.9756097560975979,4.785020803109774,15.487804878048836,50
8158.476335,1.36654,1,125,1,0,-1,0.447915925,-750,-209,0.0017073170731737998,0.023359521860488983,1.3821138211382022,6.103249379169496,-10.284552845528452,50
8161.301198,1.399857331,1,126,1,0,1,0.547284651,-784,-209,0.014878048780488045,0.00842474158288051,-0.32520325203250194,3.6481333571031125,4.87804878048775,50
8164.067636,1.424986424,1,127,1,0,-1,0.448906969,-808,-208,-0.08593495934958965,0.010410949253859915,0.2439024390243995,4.69331785280358,-79.79674796747965,50
8166.975773,1.39163623,1,128,0,0,-1,0.560354196,-775,-209,-0.030325203252036092,0.010443911426032767,-0.40650406504065034,5.469557135464794,66.58536585365856,50
8169.717303,1.349991323,1,129,1,1,1,0.429591867,-733,-208,-0.046341463414632106,0.009311694129656833,-0.487804878048799,4.731888913342635,79.55284552845521,50
8172.517273,1.516460092,1,130,0,1,1,0.531144192,-900,-209,-0.17788617886178812,0.016730593245519454,-1.837606837606818,,4.430894308943127,50
8175.517085,1.441507712,1,131,0,1,1,0.565158086,-825,-208,-0.019512195121950293,0.007241707623298889,0.40650406504065045,3.749986229512055,-58.69918699186996,50
8178.316844,1.341660499,1,132,1,0,-1,0.440213281,-725,-208,-0.08113821138211351,0.013467007886234197,0.7083333333333524,,-7.9674796747967,50
8181.008455,1.358239355,1,133,1,0,1,0.434617381,-742,-208,0.025772357723570432,0.02655514057163524,-1.626016260162602,5.250987839417214,67.96747967479666,50
8183.933201,1.574871619,1,134,1,1,1,0.648472201,-959,-209,-0.09495934959349488,0.012886627675495968,-1.4227642276423225,5.4544302821853465,-3.943089430894236,50
8186.833128,1.42490449,1,135,0,1,1,0.40914313,-808,-208,-0.013170731707314245,0.01387030947132962,0.24390243902439943,4.764949028322769,4.959349593495953,50
8189.582833,1.35838797,1,136,1,0,1,0.404688255,-742,-208,0.045365853658534516,0.00943439800349807,0.40650406504065034,5.331560780199759,11.219512195122006,50
8192.341078,1.499959876,1,137,0,0,1,0.480597112,-883,-209,-0.05382113821138419,0.00598099972609722,0.08130081300805617,3.0787148339449346,-63.861788617886226,50
8195.140914,1.524915677,1,138,1,0,-1,0.382133145,-909,-209,-0.046666666666670346,0.012050086057657368,-0.5691056910568553,5.303904530178708,-8.333333333333385,50
8198.015796,1.399933874,1,139,1,0,1,0.430197219,-783,-208,-0.05821138211381931,0.010996367002317613,-0.1626016260162046,5.229228855572859,11.260162601626046,50
8200.773942,1.416658769,1,140,1,0,-1,0.440114694,-800,-208,-0.031626016260161656,0.014423048365226926,0.975609756097598,5.545764390684009,-73.86178861788615,50
8203.65707,1.475013699,1,141,0,0,-1,0.545678531,-867,-209,-0.04552845528455302,0.018704841845553807,-1.707317073170704,5.588506945067703,-6.1788617886179065,50
8206.4569,1.491642813,1,142,1,0,-1,0.403610368,-875,-209,0.04406504065040645,0.01130461420541535,-0.8536585365854211,4.787092390249036,66.38211382113825,50
8209.323414,1.458293853,1,143,1,0,1,0.458475474,-842,-209,0.07040650406503826,0.01096868194486592,-0.7723577235772267,4.294345576014451,10.162601626016212,50
8212.131588,1.458319925,1,144,1,0,-1,0.434636445,-842,-209,0.019430894308946952,0.012240565735863929,0.5691056910569474,2.8181024410464537,-74.10569105691054,50
8214.898108,1.391695381,1,145,1,1,-1,0.392959838,-775,-208,-0.03764227642276743,0.016439257595669228,-1.138211382113895,4.805696489799134,67.31707317073177,50
8217.706368,1.391612488,1,146,1,1,1,0.50190603,-775,-208,0.042764227642276255,0.008198895762912679,-0.7723577235771804,4.729793147868944,14.349593495934897,50
8220.472893,1.399877337,1,147,1,0,-1,0.454518461,-783,-208,-0.01178861788617766,0.007575386214826703,0.0,4.685212856658179,-76.38211382113819,50
8223.222727,1.566558144,1,148,0,0,-1,0.431817146,-950,-208,-0.012195121951221083,0.021644957778593207,-1.2601626016260716,3.448822268733352,59.10569105691056,50
8226.089277,1.37490811,1,149,1,0,1,0.378616219,-758,-208,-0.020650406504069182,0.018783831047229835,1.341463414634128,5.972152088522458,9.837398373983754,50
8228.839004,1.524901106,1,150,0,0,-1,0.448520367,-909,-209,-0.05821138211382208,0.013973337026760523,0.04065040650402807,6.370322077494385,-78.82113821138209,50
8245.046455,1.416588927,1,151,1,0,-1,0.706508033,-800,-208,0.08861788617886474,0.02504091436879167,-1.66666666666663,7.071067811865537,53.8211382113821,50
8247.979583,1.400025334,1,152,0,1,1,0.602111231,-783,-208,-0.029430894308940074,0.014015845163908922,-0.5833333333333712,,12.723577235772376,50
8250.787769,1.52502468,1,153,0,0,-1,0.493571018,-908,-208,0.060487804878043124,0.022676660847389132,1.5853658536585276,4.1311694360690865,-57.96747967479676,50
8253.970917,1.42507662,1,154,0,1,-1,0.743888765,-808,-208,-0.0006504065040667598,0.017637592574451386,1.3414634146341742,4.052827180687844,-6.4634146341463765,50
8256.837423,1.533377149,1,155,0,0,-1,0.524758544,-917,-208,-0.16495934959349492,0.02061067812757684,-1.95121951219515,4.7269973485125085,46.26016260162604,50
8259.829028,1.466516753,1,156,1,1,1,0.543943426,-858,-208,-0.03463414634146509,0.018713674133556957,0.7723577235772265,7.399713985679897,77.11382113821138,50
8262.6705,1.483237884,1,157,1,0,1,0.457971241,-867,-209,-0.12821138211381944,0.016740072335937047,-1.2916666666666285,,-56.82926829268296,50
8265.687018,1.3416246,1,158,0,1,-1,0.615738538,-725,-208,0.038292682926834645,0.012219487853536467,0.487804878048799,6.514980677654995,-10.365853658536574,50
8268.695095,1.524961797,1,159,0,1,1,0.749401679,-909,-209,-0.04617886178861619,0.02366426326913877,-2.0731707317072803,5.518882194626861,71.30081300813008,50
8271.678333,1.491626337,1,160,0,1,1,0.550351223,-875,-208,-0.0973983739837373,0.009165021574661198,-0.04065040650412044,5.391047040682798,-61.30081300813006,50
8274.619769,1.516633934,1,161,1,0,-1,0.519719442,-908,-208,-0.0013008130081322263,0.015186504405400671,0.8943089430894494,5.821388012989544,-69.75609756097562,50
8277.478079,1.433215348,1,162,1,0,-1,0.426262896,-816,-208,-0.16203252032519758,0.02828240164563234,-1.916666666666676,,70.24390243902437,50
8280.286225,1.416524352,1,163,1,0,1,0.460217416,-800,-209,-0.00040650406504037274,0.012857357936860091,-0.4471544715447708,5.257906554310721,70.44715447154476,50
8283.344299,1.50835276,1,164,0,0,1,0.723385284,-891,-208,0.006585365853655596,0.013696231376415516,-0.04065040650402803,4.931616445891087,0.6097560975609766,50
8286.277594,1.558237004,1,165,1,0,1,0.503082178,-941,-208,-0.11764227642276631,0.011474076803630108,-1.2195121951220438,3.3942480886421027,-65.36585365853665,50
8289.468946,1.333302068,1,166,0,0,-1,0.719327343,-725,-208,-0.3634959349593483,0.021383195743749337,-1.4583333333333806,,-77.7642276422764,50
8292.327119,1.508294106,1,167,0,0,-1,0.609958712,-900,-208,-0.011300813008129138,0.02267986691486164,-2.1138211382113545,5.46018342311717,71.54471544715446,50
8295.20197,1.491608544,1,168,0,1,1,0.447623714,-875,-209,0.05146341463414335,0.0066617074554864335,-0.0813008130081024,4.416512798549708,73.17073170731707,50
8299.435166,1.499896761,1,169,1,0,1,1.822971803,-883,-209,-0.02666666666666598,0.016540270272382286,-1.66666666666663,5.773502691896223,-63.13008130081295,50
8302.509866,1.541730899,1,170,1,1,-1,0.653582721,-925,-208,-0.03715447154471807,0.019661354004701252,0.691056910569078,6.757266587050426,-17.92682926829267,50
8305.401472,1.391551006,1,171,1,1,1,0.431454986,-775,-209,-0.03455284552845583,0.025663255514213203,-1.2601626016260719,7.230060776739291,63.33333333333331,50
8308.276267,1.566640819,1,172,0,1,1,0.562609196,-959,-209,-0.0013821138211382482,0.010718765293031523,-0.24390243902449196,4.0751905804395285,4.0650406504065035,50
8311.234396,1.424904798,1,173,1,0,1,0.465679638,-809,-209,0.12699186991869313,0.008675981510214429,-0.3252032520325942,4.630222272421005,2.15447154471543,50
8314.051001,1.416538364,1,174,1,0,1,0.481701797,-800,-209,-0.05528455284553206,0.014030928133206525,0.7500000000000284,,-63.73983739837392,50
8316.842435,1.475029804,1,175,1,1,-1,0.456012813,-858,-208,0.0665853658536587,0.022116809936713517,1.6666666666666758,4.371005726021206,-16.38211382113825,50
8319.708995,1.416600687,1,176,1,0,1,0.471494998,-800,-208,-0.0060975609756063354,0.016095918451144806,-1.0162601626017185,3.6788056412191064,71.0975609756097,50
8322.433822,1.533236534,1,177,1,0,1,0.391115983,-917,-209,0.1445528455284548,0.012471131314631342,0.975609756097598,5.334039711301874,-53.25203252032521,50
8325.358617,1.408307969,1,178,1,1,-1,0.476771351,-791,-208,0.08430894308943361,0.011006580813509874,-0.5284552845529195,4.529921964759466,-10.325203252032525,50
8328.075163,1.35831046,1,179,1,0,1,0.389870658,-742,-209,0.08195121951219582,0.008681312842901242,-0.3658536585366685,3.002081371973574,70.85365853658539,50
8330.883311,1.525037218,1,180,0,0,1,0.530948178,-908,-208,-0.11040650406503616,0.008778982105166169,-0.93495934959357,3.948324410272599,-57.926829268292636,50
8333.683144,1.366634522,1,181,1,0,-1,0.355743254,-750,-209,0.00853658536585486,0.022356984466718372,1.951219512195057,4.75557637336115,-72.11382113821142,50
8336.399706,1.53326397,1,182,1,0,-1,0.435345988,-917,-209,-0.03739837398374418,0.019930476027374844,-1.7073170731707965,5.41612323575513,3.9430894308942803,50
8339.35788,1.46663569,1,183,0,1,-1,0.503640487,-850,-208,-0.0006504065040701794,0.017308864805239608,-1.0975609756097284,3.710560555201322,62.96747967479679,50
8342.182736,1.433243169,1,184,0,0,1,0.43777136,-816,-208,-0.05406504065040512,0.012735455117117761,0.12195121951217675,5.025547792041052,-0.40650406504064673,50
8344.932605,1.466496569,1,185,1,0,-1,0.397768776,-850,-208,-0.24422764227642835,0.28937082595818975,-0.059523809523890456,,-83.73983739837398,50
8347.799038,1.458230745,1,186,0,1,-1,0.478635912,-841,-208,-0.4733333333333356,0.009640919028656063,-0.487804878048799,7.635354069511513,5.447154471544658,50
8350.832329,1.533112165,1,187,1,0,-1,0.653298382,-916,-208,-1.0887804878048748,0.27293502703770034,-1.2121212121212295,,13.98373983739841,50
8353.748735,1.5332443,1,188,1,0,-1,0.464580718,-917,-209,-0.09991869918699305,0.013372933460131341,-0.6910569105691243,4.611985236970212,70.7723577235772,50
8356.606904,1.474878386,1,189,1,1,1,0.404534862,-859,-209,0.1275609756097547,0.011055714904266193,0.8130081300812546,5.473785163256187,70.77235772357729,50
8359.46507,1.341658355,1,190,1,1,1,0.468564302,-725,-208,0.038373983739840765,0.010530887749892602,-4.332577657073782e-17,6.082094205016417,-0.44715447154477184,50
8362.456619,1.508202514,1,191,1,0,1,0.735525656,-892,-208,-0.0036585365853641907,0.012546693804136567,0.1250000000000285,,-4.47154471544706,50
8365.331445,1.49163052,1,192,0,0,1,0.45048124,-875,-208,0.15853658536585072,0.008557079541811351,0.5691056910569012,3.3457037956992783,2.764227642276405,50
8368.114611,1.474924249,1,193,0,1,1,0.375164991,-859,-209,0.1534146341463443,0.013001522712165732,0.4878048780488453,5.741069445606254,7.520325203252032,50
8370.922747,1.366687012,1,194,0,0,1,0.416910873,-750,-208,0.1301626016260139,0.022226815573923916,2.1138211382113545,3.3742286129183374,-3.8211382113821544,50
8373.664245,1.566620936,1,195,1,0,1,0.460482768,-950,-209,0.02772357723577524,0.009585224489879059,-0.3252032520325018,5.234598161522713,-70.48780487804876,50
8376.555823,1.408224173,1,196,0,1,-1,0.40819033,-792,-209,0.3938211382113758,0.17013904101590202,-0.4761904761903815,,-76.26016260162605,50
8379.388916,1.40831131,1,197,1,0,-1,0.506201184,-792,-209,-0.056829268292683456,0.031971796679783754,-2.926829268292609,5.864094130687184,57.27642276422763,50
8382.347096,1.383297375,1,198,0,0,1,0.64146513,-767,-209,0.04471544715447792,0.007845423142643856,0.33333333333336174,,82.64227642276425,50
8385.247032,1.499906465,1,199,0,1,1,0.596687993,-883,-208,-0.09113821138211689,0.01857398879311303,-1.3414634146340818,4.982619006843756,4.674796747967479,50
8388.113448,1.483294673,1,200,0,0,1,0.445085888,-867,-209,0.10894308943090181,0.009852504695115198,0.08333333333325758,,-62.03252032520326,50
8398.862829,1.508331351,1,201,0,1,-1,0.956842039,-891,-208,0.027317073170731912,0.01457621777627036,0.04273504273495533,,-82.27642276422765,50
8401.729335,1.416707291,1,202,0,1,-1,0.436977434,-800,-208,0.009268292682931063,0.008484159576061282,-0.4471544715446322,4.340275712207685,-4.512195121951231,50
8404.562589,1.399882462,1,203,0,1,-1,0.501406844,-792,-209,0.09861788617885768,0.015074231902376205,-0.7317073170731522,4.181660509766826,1.6666666666666292,50
8407.237485,1.433208244,1,204,1,0,-1,0.367345194,-816,-208,0.04162601626016217,0.02872922723616925,0.5982905982905886,,-8.658536585365834,50
8410.48732,1.516460137,1,205,1,0,-1,0.898048513,-900,-208,-0.16390243902439516,0.05754018732600775,-3.4583333333333135,,2.682926829268302,50
8413.570475,1.558233568,1,206,0,1,-1,0.652219778,-942,-208,-0.007479674796754012,0.012484374528848102,-0.32520325203250183,5.462603985542016,-2.479674796747976,50
8416.470207,1.383283095,1,207,0,0,-1,0.42454712,-767,-209,-0.12292682926829558,0.009405629179824135,0.3252032520325943,6.227610435291791,0.5284552845528737,50
8419.495152,1.53312555,1,208,1,1,-1,0.72311951,-916,-208,0.030487804878051,0.01668905892151806,-1.2393162393162298,,66.46341463414635,50
8422.553241,1.40820379,1,209,0,0,1,0.604645693,-791,-208,-0.0020325203251998322,0.009989087839614354,-0.1219512195122228,4.733983751007429,10.447154471544641,50
8425.31975,1.433286935,1,210,1,0,-1,0.43929074,-817,-209,-0.03390243902439056,0.012792935455460692,-0.2032520325202789,6.270712259600888,-72.3983739837398,50
8428.094667,1.44993828,1,211,0,1,-1,0.424296526,-833,-208,0.06048780487804617,0.010173327672967766,-0.8130081300812546,6.708425629012219,-5.6910569105690625,50
8430.952879,1.474853007,1,212,1,0,-1,0.489977416,-858,-208,-0.058699186991865986,0.010835297035222232,0.40650406504069664,4.908105234459552,10.650406504065018,50
8433.911051,1.34154127,1,213,0,1,-1,0.565552522,-725,-209,0.03211382113821379,0.012266458024417542,0.6504065040650038,5.629457568689946,-1.9512195121951035,50
8436.527407,1.583335737,1,214,0,0,-1,0.356622371,-967,-209,-0.10178861788617641,0.03842785938300309,-1.951219512195011,5.152188461058407,-1.2195121951219983,50
8439.40234,1.549894883,1,215,1,0,-1,0.371558957,-933,-208,0.010243902439017013,0.010859062020854576,-1.0162601626015335,4.783639246619656,13.00813008130086,50
8442.302083,1.516633582,1,216,0,0,-1,0.433178749,-901,-209,0.07926829268292405,0.014622398175032017,0.40650406504065034,7.978464304393898,68.98373983739835,50
8445.135263,1.458365612,1,217,1,0,1,0.399065327,-841,-208,0.04308943089430765,0.008586382053679974,0.40650406504069664,3.507260912215001,65.60975609756105,50
8447.835128,1.35833028,1,218,1,1,1,0.320078541,-742,-209,-0.0006504065040713815,0.02268540360053737,1.3008130081301,5.013696621312726,-61.46341463414645,50
8450.618289,1.408374929,1,219,1,1,-1,0.504532142,-792,-208,0.05593495934959244,0.011760830721890044,0.7317073170732447,3.9994711792677453,-68.04878048780482,50
8453.426555,1.366534212,1,220,0,1,-1,0.480533409,-750,-208,0.03577235772356865,0.022453747967890313,1.3414634146340814,4.086124186383393,-0.04065040650407339,50
8456.143072,1.383304709,1,221,0,1,-1,0.433357202,-766,-208,0.12821138211382552,0.008959334838345118,0.3658536585366223,4.707029211749335,-4.4308943089430795,50
8458.909547,1.499970914,1,222,1,0,-1,0.469345839,-892,-209,0.03252032520324898,0.010713830885914053,0.853658536585375,4.4951336412290175,62.764227642276374,50
8461.659354,1.516613399,1,223,1,1,1,0.329004319,-908,-208,0.0755284552845567,0.010700249533321842,0.28455284552852006,5.421307443186334,75.52845528455293,50
8464.459326,1.566486667,1,224,0,1,1,0.370697107,-950,-208,0.06902439024390426,0.008954907195456854,1.000000000000038,,-67.07317073170732,50
8467.325855,1.474852541,1,225,0,1,-1,0.384698755,-858,-208,0.09983739837398241,0.020295588180606918,2.3577235772356615,5.866348034539066,-13.25203252032523,50
8470.092257,1.491650462,1,226,1,0,1,0.370958302,-875,-208,0.09382113821138394,0.018700954317330445,-0.2083333333333332,,9.9186991869918,50
8472.842073,1.53322628,1,227,0,0,-1,0.340382932,-916,-208,0.17577235772357763,0.01820521091723287,1.2195121951219514,5.546360292946339,-80.77235772357723,50
8475.683574,1.458343503,1,228,0,1,-1,0.388479545,-842,-209,0.010569105691061531,0.006768018012444713,0.4471544715446785,4.7715335641042005,70.52845528455289,50
8478.491745,1.49169727,1,229,1,0,1,0.430609585,-875,-208,0.07357723577235928,0.012639596610338161,0.3658536585365761,4.575654248863538,79.95934959349582,50
8481.416596,1.441665826,1,230,0,0,1,0.515690339,-825,-209,-0.029024390243901556,0.008298260518666794,0.8130081300812546,4.480036283055519,-74.34959349593491,50
8484.233124,1.449924406,1,231,0,1,-1,0.448523898,-834,-209,0.08764227642276586,0.011803466958597417,0.12195121951217666,7.742381900523391,-8.33333333333333,50
8487.23293,1.358293687,1,232,1,1,1,0.63269911,-742,-209,0.017073170731708706,0.007507019651050153,-0.40650406504065034,4.444485755641395,19.715447154471537,50
8490.057869,1.383235074,1,233,0,1,-1,0.54976939,-766,-208,-0.02495934959349514,0.010438213883385202,-0.894308943089357,5.982104760698607,-17.520325203251982,50
8492.857611,1.55833775,1,234,1,1,1,0.498810551,-942,-209,-0.0207317073170728,0.00963062952517797,-0.4878048780487992,6.314304988275645,61.951219512195166,50
8495.907492,1.40824148,1,235,1,1,1,0.572517004,-792,-209,-0.12138211382114208,0.016775177202141854,-0.8749999999999621,,-8.25203252032528,50
8498.690654,1.550021832,1,236,1,0,1,0.457103633,-933,-208,-0.14081300813008346,0.011957578088357602,-0.32520325203259404,8.199903431541024,15.16260162601633,50
8501.57378,1.491688092,1,237,1,1,1,0.41913865,-875,-208,-0.08739837398374288,0.022190505490894567,-1.6666666666666758,5.992316670419689,-68.94308943089436,50
8504.690354,1.483280583,1,238,0,1,-1,0.707833475,-867,-209,0.037804878048780764,0.00816901247940167,0.040650406504120495,3.72655825572848,-9.674796747967498,50
8507.481797,1.491627099,1,239,0,0,1,0.392110409,-883,-208,-0.04658536585365785,0.02642063781312331,-1.6666666666666967,,84.14634146341467,50
8510.415086,1.333270274,1,240,0,1,1,0.526589314,-725,-209,0.04373983739837044,0.014468347139201695,-0.6097560975609292,7.858471147443467,6.300813008130081,50
6185.461686,1.574843539,1,1,1,1,1,0.934745802,-958,-208,0.08211382113820723,0.015902987670719192,1.0162601626016723,5.112263389353769,8.130081300813007,75
6188.819757,1.358289633,1,2,1,1,1,0.854856139,-742,-209,0.019186991869918162,0.01151146017588802,1.1788617886177846,6.271239276642655,3.8211382113821517,75
6191.886314,1.541626748,1,3,0,1,1,0.778071624,-925,-208,0.035934959349588264,0.011409954336812182,-0.16260162601629718,5.58022153362525,0.7317073170731541,75
6194.877832,1.558289398,1,4,1,0,1,0.52882851,-941,-208,-0.04813008130081499,0.010412853753876518,-0.24390243902444575,4.222166560194811,-63.57723577235777,75
6198.044296,1.483236762,1,5,0,0,-1,0.679527477,-867,-208,-0.008699186991865705,0.011534978144804362,-0.7500000000000284,,-74.390243902439,75
6201.219064,1.516614785,1,6,1,1,-1,0.773326178,-900,-209,0.0673983739837399,0.009288951444794375,-0.04065040650407434,4.763908532835028,-2.1951219512195492,75
6204.310545,1.491689968,1,7,0,1,-1,0.654200743,-883,-208,-0.07349593495934977,0.01792641446342752,-1.6260162601626014,4.2529728941954,-5.365853658536558,75
6207.243719,1.408303177,1,8,0,0,-1,0.521689396,-792,-209,0.06731707317073324,0.01567609548308584,-0.8943089430894494,4.230768075205897,1.8699186991870007,75
6210.026963,1.566608741,1,9,1,0,-1,0.449881114,-950,-209,-0.16325203252032666,0.011323309187414941,-0.5833333333333238,,3.943089430894325,75
6213.435047,1.583297208,1,10,0,0,-1,0.922858583,-967,-209,-0.15463414634146833,0.01451851334756855,-1.260162601625979,5.344253147819426,2.0325203252032513,75
6216.384971,1.57490653,1,11,0,1,-1,0.451616473,-958,-209,0.09723577235772007,0.019521339320744957,1.178861788617877,5.669821006803179,-2.3170731707317263,75
6219.66801,1.433352925,1,12,1,1,-1,0.790400456,-817,-208,-0.053008130081297615,0.016075783906569656,-1.2195121951219512,5.43531050668244,3.3739837398373798,75
6222.792869,1.458267379,1,13,0,0,-1,0.776775931,-842,-209,0.09853658536584992,0.010900980847419046,0.691056910569078,4.323873504252356,54.83739837398373,75
6225.75101,1.549962204,1,14,1,1,1,0.585509955,-933,-208,-0.15317073170731518,0.05482677520395498,-2.850877192982406,,71.17886178861791,75
6228.909197,1.424912925,1,15,0,1,1,0.688941409,-808,-208,-0.0043902439024411325,0.018800010969488367,1.5853658536584812,6.191952329163889,-60.3252032520325,75
6231.734009,1.458250214,1,16,0,0,-1,0.480748955,-841,-208,-0.20666666666666392,0.03650922519524635,-3.0487804878049243,3.660794244689185,-77.35772357723582,75
6234.7339,1.483303982,1,17,1,0,-1,0.621015525,-867,-208,-0.25796747967479017,0.01660249394544481,-6.498866485610672e-17,4.771187236136805,57.39837398373985,75
6237.608675,1.441670228,1,18,0,1,1,0.477542637,-825,-208,-0.04439024390243488,0.034015428490198577,-0.3418803418803224,,14.024390243902438,75
6240.700175,1.441578594,1,19,1,1,-1,0.731950941,-825,-208,-0.2270731707317081,0.0244503324859888,-2.032520325203252,5.000165242824376,-6.097560975609745,75
6243.458336,1.358356507,1,20,1,0,1,0.392835149,-742,-208,-0.2532520325203283,0.03773251225835935,-3.170731707317008,4.949677360057834,7.317073170731685,75
6246.383239,1.458238185,1,21,0,0,-1,0.644967558,-842,-209,0.0037398373983752032,0.015561408868244834,1.0569105691056542,2.320992264003009,-67.6829268292683,75
6249.283155,1.516501612,1,22,1,0,-1,0.525944211,-900,-209,-0.021951219512190038,0.010975308637844785,0.04065040650402793,4.834493901566851,64.95934959349597,75
6252.224569,1.458274933,1,23,1,1,1,0.503812743,-842,-209,-0.017479674796749445,0.008880788165477852,0.36585365853657603,5.000165242824734,73.57723577235774,75
6255.34111,1.366537211,1,24,0,1,1,0.740431401,-751,-209,0.026910569105688766,0.0073161697725959715,-0.2845528455284275,4.2754488983540275,-8.41463414634148,75
6258.307624,1.491554256,1,25,1,1,1,0.683803123,-875,-209,-0.0073170731707368816,0.015503960589857447,1.4227642276422765,4.591157041787107,-58.00813008130079,75
6261.25746,1.441500039,1,26,0,0,-1,0.537132591,-825,-208,-0.03951219512195864,0.011848739318527748,0.4878048780487988,5.549041061215195,-70.89430894308946,75
6264.215517,1.441580979,1,27,0,0,-1,0.595368118,-834,-209,-0.033414634146341854,0.022809478833907677,-1.8699186991870471,5.857327215309817,59.71544715447158,75
6267.007161,1.35811755,1,28,0,1,1,0.429386432,-742,-209,0.08658536585366167,0.01517736154682524,-0.8974358974359555,,75.60975609756095,75
6269.831984,1.416528577,1,29,1,1,1,0.546002992,-800,-209,0.028699186991871455,0.01224218560826371,-0.8130081300813007,5.102233306904895,-58.983739837398346,75
6272.556764,1.433292215,1,30,1,0,-1,0.391950213,-817,-209,-0.03699186991869715,0.031082652252804984,-2.032520325203252,3.9562683123889766,-71.86991869918704,75
6275.598322,1.399847952,1,31,0,0,-1,0.688869801,-791,-208,-0.12723577235772485,0.010974706376553288,-0.7723577235772269,4.6866234280756345,-3.7398373983740028,75
6278.30639,1.450029195,1,32,1,0,-1,0.393168603,-834,-208,0.033170731707318796,0.026371557636049894,-1.0416666666666667,,54.55284552845529,75
6281.206238,1.449959743,1,33,1,0,1,0.532633407,-842,-208,-0.20146341463414474,0.05912128936100409,-4.2916666666666,,75.0,75
6284.156056,1.575036571,1,34,1,1,1,0.583792891,-958,-208,0.05585365853658929,0.018244018375644225,0.5833333333332764,,8.04878048780486,75
6287.105908,1.524975516,1,35,1,1,1,0.453236439,-909,-209,0.1685365853658547,0.024110043616425658,1.499999999999962,,-1.056910569105653,75
6290.122463,1.541601409,1,36,0,1,1,0.570397448,-925,-209,0.026666666666661364,0.01889644978985702,-1.5853658536585276,5.192124789092044,2.276422764227652,75
6293.088938,1.366688787,1,37,1,1,1,0.504785722,-750,-208,-0.011788617886182927,0.03297687654916671,2.6829268292682094,4.551393496675959,9.51219512195121,75
6295.888781,1.44167351,1,38,0,0,1,0.512522188,-825,-208,0.06186991869918506,0.012024277554620834,0.3658536585365762,4.750013480539703,-67.6016260162602,75
6298.6053,1.474913809,1,39,1,0,-1,0.358780015,-859,-209,-0.046829268292685904,0.012390307918661709,-0.9349593495934776,3.8263241059348094,-77.0731707317073,75
6301.605089,1.525036206,1,40,1,0,-1,0.60942286,-908,-208,-0.018048780487803062,0.03765570709844304,-2.195121951219457,6.90075821990018,9.552845528455284,75
6304.480061,1.466486239,1,41,0,0,-1,0.431700619,-858,-208,0.0030081300813023294,0.013510619888026657,-0.8130081300813009,4.672498551382664,3.048780487804878,75
6307.404802,1.366690977,1,42,1,0,-1,0.542775017,-750,-208,-0.0543902439024416,0.02035737291575704,-0.7723577235771802,6.07203328450029,-4.390243902439051,75
6310.13799,1.541629259,1,43,0,0,-1,0.446703831,-925,-208,-0.2598373983739844,0.05322912683066971,-2.875000000000038,,55.20325203252035,75
6313.046192,1.433263945,1,44,1,1,1,0.450896976,-817,-208,-0.04991869918699731,0.0149906882768015,-1.3821138211382482,4.243637658001846,76.70731707317076,75
6315.870934,1.358321405,1,45,0,1,1,0.474376895,-742,-209,0.10699186991869707,0.012828021413538608,1.4634146341463508,5.810875724635423,-65.44715447154476,75
6318.529184,1.524886602,1,46,0,0,-1,0.380831111,-908,-208,-0.179186991869923,0.019035852290275997,-0.7723577235772731,7.233031361719738,-76.13821138211385,75
6321.445723,1.399873276,1,47,1,0,-1,0.46797772,-784,-209,-0.08821138211381993,0.05022166477129196,-2.777777777777875,,59.39024390243907,75
6324.42891,1.47485688,1,48,0,1,1,0.66859379,-859,-209,-0.12056910569105835,0.02875567346963814,-2.2357723577236235,6.961077970924153,23.41463414634143,75
6327.420408,1.558252407,1,49,1,1,-1,0.595113998,-941,-208,0.11398373983740072,0.02028907357936752,1.382113821138248,5.045892894043192,-65.08130081300808,75
6330.395243,1.541562959,1,50,1,1,-1,0.495486949,-925,-208,-0.0734146341463394,0.013665793658607999,0.5691056910569935,6.632123476069777,-8.414634146341482,75
6338.961338,1.533306536,1,51,0,0,-1,0.980732104,-925,-208,0.05707317073171235,0.01366482627152203,-0.5691056910569473,5.041961539419513,1.5447154471544526,75
6341.911193,1.474994532,1,52,1,0,-1,0.492712988,-858,-208,-0.18471544715447483,0.04226641532586638,-2.845528455284599,5.0504756066656,56.13821138211383,75
6344.861008,1.574943696,1,53,0,0,1,0.553625481,-967,-208,-0.057398373983740966,0.029364341046314368,-1.9105691056910294,7.321137082831217,8.78048780487805,75
6347.944297,1.349854852,1,54,1,1,-1,0.590036953,-742,-208,-0.09325203252032423,0.011921593721215812,1.0162601626016259,4.2111937679578535,-14.756097560975588,75
6350.610782,1.333185914,1,55,0,1,1,0.396776182,-716,-208,0.035528455284551404,0.010250997671863955,-0.2439024390243534,5.613584177546048,8.943089430894306,75
6353.31885,1.516628149,1,56,0,0,-1,0.45909118,-908,-208,-0.13317073170731175,0.010637054871881248,-4.7251091928046665e-14,,-8.577235772357731,75
6356.160416,1.341656293,1,57,0,1,1,0.407638081,-725,-208,0.18959349593495892,0.030683706652275596,3.0487804878048785,6.816431993738044,70.73170731707317,75
6358.901877,1.383294846,1,58,0,1,1,0.478358062,-767,-208,0.05902439024389959,0.014067155252478807,-0.24390243902435316,7.4131006829624475,-61.91056910569104,75
6361.843502,1.383172191,1,59,1,0,-1,0.639503504,-767,-209,0.05040650406503862,0.021567559602468533,-1.3821138211382487,4.2115861456680355,-14.227642276422769,75
6364.651655,1.333210342,1,60,0,1,1,0.497915845,-717,-209,0.011056910569110885,0.012559857344912839,-0.08333333333330498,,9.471544715447092,75
6367.326499,1.524925863,1,61,1,0,-1,0.427263279,-908,-208,-0.04520325203252524,0.014290916212941056,-1.341463414634128,7.853843691533905,-66.30081300813005,75
6370.317919,1.433281888,1,62,0,0,-1,0.552640121,-817,-209,0.04544715447154923,0.018093038829017912,0.6410256410256411,,60.20325203252034,75
6373.259395,1.533349587,1,63,0,1,1,0.588297991,-917,-209,0.02569105691056367,0.010719381934210969,-0.7317073170731522,4.509081178491771,83.29268292682927,75
6376.301016,1.416522225,1,64,0,1,1,0.588251527,-800,-209,-0.033170731707316756,0.018566158124665135,1.2601626016260257,5.794358622270336,-80.6910569105691,75
6379.359081,1.516611596,1,65,0,0,-1,0.727842673,-901,-209,-0.015609756097559808,0.014289991144732,0.21367521367511663,,-10.609756097560998,75
6381.942264,1.500050283,1,66,1,0,1,0.145283917,-883,-208,0.13422764227642497,0.017972445327877104,0.975609756097598,6.491349358809663,21.951219512195124,75
6385.025412,1.441627465,1,67,1,1,-1,0.665963185,-825,-209,0.05203252032519983,0.007679377164247638,-0.32520325203250183,4.248696790391585,-23.57723577235772,75
6388.233668,1.466528315,1,68,0,1,1,0.849657729,-850,-209,-0.2299186991869909,0.03758454896769628,-3.2926829268292317,5.720308101861598,65.12195121951221,75
6391.408396,1.574955531,1,69,1,1,1,0.794034836,-959,-209,0.010650406504062656,0.019998677991867882,-0.04273504273505251,,13.821138211382115,75
6394.516557,1.4333548,1,70,1,1,1,0.614632856,-817,-209,0.054065040650400874,0.01760608479172582,1.2601626016260257,4.535026103803086,5.28455284552841,75
6397.508167,1.34991379,1,71,0,1,1,0.640451424,-733,-209,0.0026016260162634343,0.02237353469014278,-1.5447154471544533,7.4023932618469725,3.7804878048780766,75
6400.349658,1.449920033,1,72,0,1,1,0.571060996,-833,-208,0.033902439024389996,0.02445303570355459,1.8292682926828807,3.8220030157866165,-50.56910569105685,75
6403.299404,1.508355802,1,73,0,0,-1,0.582608807,-892,-208,0.11073170731707302,0.009824960221151837,-0.3252032520325942,5.499686024483619,-69.18699186991874,75
6406.140905,1.475026357,1,74,1,0,-1,0.413912784,-858,-208,-0.13073170731707007,0.024644474477694113,-2.2764227642276977,5.955527340426995,-5.325203252032529,75
6409.007474,1.408296074,1,75,1,0,-1,0.470102812,-792,-208,-0.07390243902438708,0.008871852270376514,-0.4471544715447247,4.568425722629778,2.317073170731728,75
6412.007241,1.566700013,1,76,0,0,-1,0.670517041,-950,-209,-0.07829268292683192,0.023298322222041996,-1.9918699186991313,5.103528618758055,1.585365853658527,75
6415.015471,1.566580373,1,77,0,0,-1,0.527711179,-950,-209,-0.12365853658536394,0.03241038326453159,-2.560975609756125,5.115171664959891,-3.6585365853658542,75
6418.006948,1.391639686,1,78,1,0,-1,0.503442543,-775,-208,-0.11138211382114063,0.022558595054952748,-1.4227642276423689,4.317371722715969,64.34959349593498,75
6420.823424,1.433373847,1,79,0,1,1,0.503735708,-826,-209,-0.09796747967479176,0.010020139677367128,-0.40650406504065034,4.4138929441109935,11.99186991869914,75
6423.856583,1.466625549,1,80,0,0,-1,0.685966426,-851,-209,-0.0024390243902441796,0.013738153550546127,-0.5284552845528732,7.5925993098884055,-23.373983739837357,75
6426.898141,1.424953544,1,81,1,0,1,0.659423693,-808,-208,-0.15853658536584775,0.02003236194636995,-1.3414634146340354,3.775895453571733,69.06504065040649,75
6429.539608,1.483329194,1,82,1,1,1,0.298961272,-867,-209,-0.05178861788617816,0.012118458216534895,0.8130081300813007,3.3761869581863513,-0.0813008130081019,75
6432.631084,1.491638694,1,83,0,1,1,0.687425721,-876,-209,-0.041138211382117075,0.006037098606743842,-0.20325203252037144,3.9508347365261973,-1.3414634146341757,75
6435.572599,1.541611712,1,84,0,1,1,0.532900376,-925,-208,0.03788617886179113,0.006434588272328229,0.12195121951222289,3.7429290861518294,4.268292682926875,75
6438.572429,1.375030419,1,85,1,1,1,0.541034132,-758,-208,0.15048780487805238,0.01723500535185511,1.910569105690983,3.8705506076968104,1.9512195121950562,75
6441.538966,1.458230821,1,86,1,1,1,0.675892289,-842,-209,0.06731707317073268,0.018720030800615965,1.8292682926829729,4.352441890837336,-59.22764227642279,75
6444.2805,1.39164723,1,87,1,0,-1,0.369305644,-775,-208,-0.0864227642276392,0.010124481350281869,-0.24390243902435324,5.826778845008598,-80.28455284552842,75
6447.113653,1.458322663,1,88,0,0,-1,0.527503225,-842,-208,0.0022764227642343526,0.017384691831608175,0.24390243902435332,7.431356837467166,2.4390243902439024,75
6449.913458,1.475001185,1,89,0,1,-1,0.420907552,-858,-208,0.049268292682921856,0.012342202490804765,0.7317073170732448,4.083292358974972,3.9430894308942794,75
6452.904964,1.499938061,1,90,0,0,-1,0.59485576,-884,-209,-0.0669918699186974,0.00695300219617111,-0.93495934959357,4.553934248456976,59.34959349593496,75
6455.7298,1.558285054,1,91,1,1,1,0.410151073,-950,-208,0.13024390243903072,0.017696705219791584,1.2195121951219512,7.895183862161351,72.92682926829272,75
6458.62139,1.549864144,1,92,1,1,1,0.423577028,-942,-209,0.12528455284553378,0.017972445327876597,1.7073170731707044,8.068875301333149,2.886178861788581,75
6461.537897,1.441533826,1,93,1,1,1,0.444920197,-833,-208,0.12300813008130142,0.016166396309049764,-0.7317073170731523,5.007430528694569,-0.4471544715446776,75
6464.779303,1.450008922,1,94,1,0,1,0.884769328,-833,-208,-0.05829268292682755,0.012038561436680913,-0.8943089430894494,4.1499267139447875,-66.17886178861791,75
6467.479168,1.416609499,1,95,1,0,-1,0.33034127,-808,-208,0.022764227642274943,0.010292182009157208,-0.32520325203245537,5.938021261615808,-68.17073170731707,75
6470.295651,1.358295837,1,96,0,0,-1,0.481260423,-750,-208,-0.06910569105690974,0.035084291764085444,-1.138211382113849,6.781920653425187,2.5203252032520496,75
6472.920597,1.383212695,1,97,1,0,-1,0.345911782,-775,-209,-0.015121951219509534,0.016656550568644252,-1.3008130081301,4.425109970950946,-1.341463414634129,75
6475.578695,1.500019215,1,98,0,0,-1,0.360617499,-883,-208,-0.08081300813007768,0.03293616248331814,-2.875000000000038,,61.219512195121965,75
6478.520236,1.441615663,1,99,0,1,1,0.521493402,-825,-208,-0.03479674796748389,0.01545656538317546,-1.0569105691056542,5.1370920876174315,19.552845528455236,75
6481.345126,1.51656103,1,100,0,1,-1,0.46304122,-900,-209,0.014715447154466295,0.007403286138427085,0.5691056910568552,3.158199121878692,-13.455284552845503,75
6494.619359,1.458317382,1,101,0,0,1,3.019680051,-842,-208,0.031951219512190834,0.008861415670529265,-0.20325203252037144,5.548445446867015,-5.894308943089483,75
6498.002498,1.333324465,1,102,1,0,-1,1.004032859,-725,-208,-0.024065040650401347,0.018504822308650627,0.087719298245584,,-63.53658536585359,75
6501.027261,1.57502444,1,103,1,1,-1,0.777240959,-958,-208,-0.17113821138211704,0.028225553480094576,-2.3577235772357077,4.756618691483035,56.260162601626014,75
6504.077195,1.483188444,1,104,0,1,1,0.559000326,-866,-208,-0.051707317073177675,0.010592843886115165,-0.6910569105690779,4.7423538481591825,68.29268292682923,75
6507.093591,1.491696637,1,105,1,1,1,0.61896338,-875,-209,-0.05130081300813011,0.014519879088914492,-0.598290598290637,,2.154471544715476,75
6510.360083,1.424958277,1,106,1,0,1,0.858203127,-809,-209,-0.12113821138211282,0.02822578765778051,-2.0325203252032518,6.812552131740999,4.796747967479655,75
6513.285025,1.349926046,1,107,1,0,1,0.585288004,-733,-208,0.013577235772358134,0.023318456490811695,-0.8750000000000095,,5.731707317073182,75
6516.101477,1.391634045,1,108,1,0,1,0.552277773,-775,-208,0.03723577235772816,0.013180263538699251,0.9999999999999905,,2.4390243902439024,75
6518.976262,1.383302927,1,109,1,1,1,0.564869084,-767,-209,0.009430894308939319,0.007701723468481383,0.2439024390243533,4.779146429806111,-58.17073170731703,75
6521.826202,1.34154324,1,110,1,0,-1,0.54806684,-725,-209,-0.017479674796745844,0.010149259534521395,0.3252032520325019,5.3498158947517,-10.650406504065058,75
6524.992655,1.558228244,1,111,0,1,1,0.907803834,-942,-209,0.08739837398374539,0.015695058253871998,1.8292682926829271,5.771212528104398,6.219512195121918,75
6528.017433,1.341606359,1,112,0,0,-1,0.548009988,-726,-209,-0.00016260162601694432,0.015707687383067576,0.32520325203250194,6.039835154913153,-22.195121951219466,75
6530.717276,1.424964588,1,113,0,1,1,0.444167759,-809,-209,-0.010243902439022467,0.010364498556411616,0.48780487804879913,6.9086558805417555,61.58536585365854,75
6533.408802,1.441605098,1,114,0,0,1,0.349724855,-825,-209,-0.04300813008130652,0.012706357344030571,-0.7317073170732447,5.485244810872769,5.853658536585355,75
6536.300301,1.433298472,1,115,0,1,1,0.528317173,-817,-209,-0.050975609756096954,0.01587719745114925,-1.1666666666666952,,-48.658536585365866,75
6539.091811,1.533388792,1,116,0,1,-1,0.446448248,-917,-208,0.054715447154467904,0.023434668484082107,1.4634146341463046,5.195306433357045,-58.617886178861795,75
6542.058326,1.52502199,1,117,0,0,-1,0.515584938,-908,-208,0.08577235772357475,0.015133748348768798,0.8536585365852828,3.2535565534575976,58.49593495934958,75
6545.083182,1.449922971,1,118,1,0,1,0.580577018,-834,-209,-0.11414634146341407,0.034304511716286366,-2.682926829268348,5.842072997483563,12.967479674796744,75
6547.949661,1.416617799,1,119,0,0,-1,0.494914935,-800,-209,0.0017886178861740002,0.0231902641962805,0.08547008547010493,,-70.08130081300813,75
6550.766216,1.508254316,1,120,1,0,-1,0.485266807,-900,-209,-0.0017886178861837045,0.01853408912018225,-0.40650406504065034,6.844978059483481,-5.73170731707318,75
6553.691006,1.408368747,1,121,0,0,-1,0.497271068,-791,-208,-0.05894308943089015,0.007982398509680229,-0.2439024390244457,5.697441250551767,9.674796747967509,75
6556.415945,1.416556783,1,122,1,0,-1,0.40071392,-800,-208,-0.033739837398375,0.03268980229424211,-1.6239316239316532,,55.65040650406504,75
6559.282355,1.399998891,1,123,0,0,1,0.532339646,-783,-208,-0.008373983739843369,0.009298197369428626,-0.20325203252037144,4.702463200918446,60.36585365853663,75
6562.015611,1.449959861,1,124,1,0,1,0.418257999,-833,-208,0.013495934959347672,0.011064679241184214,0.8130081300813009,4.419131099824977,-54.837398373983774,75
6564.857054,1.416659725,1,125,1,1,-1,0.476204059,-800,-208,-0.013008130081297116,0.008742767517899227,0.44715447154472476,4.612701773172031,-62.764227642276424,75
6567.598562,1.424982984,1,126,0,1,-1,0.411262201,-809,-209,-0.036097560975604,0.02800715657859503,-2.154471544715383,5.903973013951001,57.11382113821138,75
6570.45928,1.364036117,1,127,0,0,1,0.516623833,-756,-209,-0.029105691056912752,0.020423178495099066,-1.8292682926828345,5.1377353901169105,11.260162601626035,75
6573.198341,1.533169823,1,128,0,0,-1,0.453142399,-917,-209,0.14186991869918755,0.03589189193493872,3.3333333333333055,4.952347449185753,-4.430894308943086,75
6576.189774,1.433289422,1,129,1,1,1,0.537118939,-817,-209,-0.006504065040651977,0.016416323296233295,-0.9349593495934775,4.3250198628521055,5.813008130081293,75
6578.88126,1.375012659,1,130,1,0,-1,0.343008379,-759,-209,0.003495934959348077,0.021844970204757817,1.0162601626015797,7.305546476469176,-26.016260162601633,75
6581.589438,1.475007157,1,131,0,1,1,0.413585256,-859,-209,0.04065040650406023,0.02172481861990251,1.544715447154453,5.0925079661355035,64.51219512195127,75
6584.639258,1.533294096,1,132,1,1,1,0.66048629,-917,-208,-0.08707317073170687,0.00948540456327477,0.7317073170731522,3.146141881445397,-56.5853658536586,75
6587.739091,1.325033309,1,133,1,0,-1,0.648692542,-717,-209,-0.021382113821135584,0.011500545297403015,0.555555555555536,,-12.642276422764242,75
6590.647263,1.566674256,1,134,0,0,1,0.66899897,-950,-209,-0.07861788617886042,0.039647798357552146,-2.82051282051283,,5.569105691056925,75
6593.730562,1.53316124,1,135,1,0,-1,0.599530504,-917,-209,-0.055121951219513556,0.023414351850149666,-1.9512195121951033,4.521889534547823,-8.658536585365809,75
6596.821966,1.483308745,1,136,0,1,1,0.637698925,-867,-209,-0.06626016260162546,0.022940375401981305,-2.7777777777778265,,75.32520325203251,75
6599.846899,1.408127875,1,137,0,1,1,0.621830679,-792,-209,0.005203252032521231,0.016886709246341027,0.9756097560975979,3.825028291446411,-58.94308943089426,75
6602.804929,1.558219571,1,138,1,1,-1,0.631811744,-942,-209,0.022601626016263913,0.020374249766299632,0.7264957264956491,,-7.398373983739908,75
6605.838226,1.499854651,1,139,0,1,1,0.556066346,-883,-208,0.09479674796748033,0.007955025939770663,-0.365853658536576,5.403905482238523,69.71544715447162,75
6608.86295,1.349959775,1,140,1,1,1,0.596297463,-734,-209,0.13691056910568994,0.022160400489564455,1.5000000000000095,,-4.9593495934959515,75
6611.829473,1.341627012,1,141,0,1,1,0.698008718,-725,-209,-0.02219512195122354,0.012670412838229379,0.8130081300813009,5.5961895575131,-58.3739837398374,75
6614.620954,1.574936416,1,142,0,1,-1,0.522939743,-959,-209,0.01918699186992473,0.006020653197259808,0.04065040650407422,3.261166035793951,-2.2357723577235515,75
6617.604127,1.49987695,1,143,0,1,1,0.49039225,-884,-209,0.019512195121953162,0.010900980847418513,0.4065040650406967,4.782257291009019,12.276422764227602,75
6621.078902,1.424999403,1,144,0,0,-1,1.054345213,-808,-208,-0.03593495934959233,0.01570432060832474,-0.20325203252027912,6.986195466322183,-73.08943089430898,75
6623.978832,1.408147019,1,145,1,0,-1,0.559627469,-792,-208,0.04471544715446998,0.017981637360743912,0.813008130081347,6.818613445938655,2.8455284552845996,75
6626.803576,1.424988448,1,146,1,0,-1,0.501508442,-809,-209,0.04495934959349793,0.010772281024424091,-4.609862627126504e-14,5.980999726097554,2.682926829268256,75
6629.686798,1.391677806,1,147,1,0,-1,0.538292388,-775,-208,-0.08040650406504053,0.02313490312236725,-2.1138211382113545,5.714816836029089,3.983739837398401,75
6632.744957,1.449867926,1,148,0,1,-1,0.746113232,-834,-209,0.051219512195126396,0.003190474287861106,-0.2439024390243533,1.7092517107009708,54.8780487804878,75
6635.586545,1.524902234,1,149,0,1,1,0.470193623,-908,-209,-0.24707317073170712,0.025845987510532322,-1.9918699186990856,4.8447372082728695,68.53658536585367,75
6638.544625,1.441608583,1,150,1,1,1,0.513762331,-826,-209,0.0608130081300859,0.013790976175073917,-0.2439024390243995,5.873104556254122,-4.756097560975628,75
6646.235904,1.541609012,1,151,0,1,1,1.062095625,-925,-208,0.17325203252032245,0.015940350838369068,1.7479674796747782,5.934959349593501,-65.93495934959353,75
6649.23566,1.383296346,1,152,0,0,-1,0.543313602,-775,-208,0.026747967479671265,0.009567969346292483,0.24390243902435324,5.479216405038708,-33.170731707317046,75
6652.552208,1.333339168,1,153,1,1,1,1.013131592,-717,-208,0.008048780487801718,0.026853893601485948,1.8292682926829733,7.2769904851877785,57.479674796747965,75
6655.793731,1.483239559,1,154,1,0,1,0.988093753,-866,-208,-0.22617886178862187,0.037825590968860734,-1.6239316239317017,,-34.06504065040653,75
6658.74347,1.558345211,1,155,0,0,-1,0.54814403,-942,-208,-0.23308943089430936,0.026929107165736578,-1.869918699186955,5.4746907443961526,1.1382113821138065,75
6661.676704,1.491626472,1,156,0,1,1,0.459838824,-875,-208,0.08308943089431221,0.01781805207388974,0.8536585365852827,4.744444065192393,70.20325203252038,75
6664.951445,1.416636829,1,157,1,1,1,0.864934513,-800,-208,0.02390243902438773,0.008123574632062702,-0.6097560975608832,5.176506464953054,-6.300813008130127,75
6667.942998,1.474911636,1,158,1,1,1,0.657915,-859,-209,-0.04886178861789165,0.008395662207105884,-0.08130081300814863,4.081673289775859,-56.788617886178876,75
6671.101186,1.40826576,1,159,0,0,-1,0.768663833,-792,-208,-0.057967479674795236,0.019983137845094433,-0.4583333333333902,,-71.30081300813002,75
6674.009329,1.45831833,1,160,0,0,-1,0.581387612,-850,-208,-0.05739837398374282,0.012546693804137156,-0.9349593495935237,3.9138552526539834,-5.203252032520352,75
6677.000885,1.34153254,1,161,1,0,-1,0.606364534,-725,-209,0.007073170731714656,0.01885898493320113,0.8130081300813471,4.247140776133014,57.03252032520324,75
