onset,duration,sub_number,trial_number,trial_color_UP,trial_color_chosen,trial_direction,trial_RT_colochoice,SON,SOFF,meanPos,stdPos,meanVelo,stdVelo,meanVSS,proba,color
8791.399394,1.458302567,1,1,0,0,1,1.048349511,-842,-208,0.0488617886178836,0.0088658900033923,-0.5691056910569475,3.746900364813917,2.1138211382114007,25,green
8797.507458,1.508185016,1,3,1,0,1,0.637066657,-892,-209,-0.0463414634146325,0.0084591923427444,0.6504065040650497,4.726647757316533,-56.5040650406504,25,green
8800.36551,1.333315718,1,4,0,1,-1,0.434157669,-717,-209,0.0396747967479633,0.0192561108622441,1.3821138211382484,4.322726841644989,-71.13821138211382,25,red
8803.198679,1.416712003,1,5,1,1,-1,0.575213434,-800,-208,0.1026829268292711,0.0066358598137925,0.0813008130081947,3.186846686588292,-4.837398373983731,25,red
8805.981897,1.433265331,1,6,0,0,-1,0.451638774,-817,-209,0.0441463414634115,0.0105471942977758,-0.3252032520325017,5.903693118579609,-10.16260162601626,25,green
8808.731826,1.483255712,1,7,1,0,-1,0.395217516,-875,-209,-0.0098373983739901,0.0370101804052896,-2.0731707317073265,4.520061991517893,65.20325203252037,25,green
8811.531632,1.399886903,1,8,1,0,1,0.402721686,-784,-209,-0.0046341463414668,0.0172625960931338,0.2032520325203713,6.514473379178579,20.20325203252029,25,green
8814.289801,1.424900424,1,9,0,1,-1,0.439327691,-817,-208,0.0560162601625989,0.0100372760203216,0.4065040650406041,6.222832420529566,-15.691056910569076,25,red
8817.072958,1.349915917,1,10,0,1,1,0.441122724,-742,-208,-0.0446341463414583,0.0215295237128338,-1.3821138211382484,5.005450132916501,67.03252032520328,25,red
8819.756087,1.424970257,1,11,0,1,1,0.412155944,-809,-209,-0.0113821138211346,0.0091686268702554,0.4471544715447245,5.460183423116643,-58.73983739837403,25,red
8822.514386,1.416538766,1,12,0,1,-1,0.413745845,-800,-208,-0.0782926829268307,0.0134871163273678,-1.0162601626016723,4.4153901941347495,-10.121951219512228,25,red
8827.939093,1.574897388,1,14,0,0,1,0.454988407,-958,-208,-0.0560975609756103,0.0113087063735868,-0.1219512195122692,6.305138824525269,5.609756097561049,25,green
8830.922274,1.441525528,1,15,0,0,1,0.489507895,-825,-209,-0.1185365853658605,0.0074938007296278,4.332577657073782e-17,3.789873827904554,-53.86178861788617,25,green
8833.713715,1.383273722,1,16,0,0,-1,0.431756023,-767,-209,0.0299999999999922,0.0113460520484028,-0.2439024390243531,6.692642236794263,-11.78861788617892,25,green
8839.388336,1.375032776,1,18,1,1,-1,0.546243376,-759,-209,0.0272357723577269,0.0090298818711645,-0.243902439024307,2.7927746402142954,-17.642276422764166,25,red
8842.038237,1.508209586,1,19,0,1,1,0.360950894,-892,-209,0.0665040650406479,0.0105038636744775,0.3658536585365298,6.538526589555384,18.048780487804866,25,red
8844.888043,1.51665999,1,20,1,1,-1,0.425364744,-900,-209,-0.0630081300813021,0.0204671466374757,-1.7073170731707503,4.378560183310094,-5.934959349593466,25,red
8850.446065,1.533352673,1,22,1,1,-1,0.420779644,-916,-208,0.0448780487804899,0.0056490903304197,4.332577657073782e-17,3.6066785386699727,-63.49593495934961,25,red
8853.370939,1.383324678,1,23,0,1,-1,0.474175991,-767,-208,0.0124390243902455,0.0153415301957609,-0.731707317073291,2.7558457327930466,66.17886178861787,25,red
8856.262404,1.399925064,1,24,1,1,1,0.585350759,-783,-208,0.0726829268292707,0.0062034171892477,0.0406504065040742,4.006901310683937,11.504065040650392,25,red
8864.420335,1.558230189,1,27,1,1,-1,0.488420836,-950,-208,-0.0401626016260119,0.0127748389427764,-0.4065040650406503,4.908105234459792,-5.934959349593505,25,red
8867.286914,1.52482604,1,28,0,1,-1,0.394101203,-909,-209,-0.0126829268292678,0.0247651404579568,-1.869918699187001,5.362156893606935,1.4634146341463057,25,red
8870.228416,1.35816052,1,29,0,1,-1,0.498497686,-741,-208,0.0669918699186982,0.0121190036385132,-1.0569105691057004,6.319798305169075,-5.081300813008084,25,red
8875.711312,1.466592838,1,31,0,0,-1,0.352690267,-850,-208,0.0071544715447178,0.0098632328917819,-0.9756097560974591,3.7172346307820807,-8.292682926829258,25,green
8878.494493,1.491598457,1,32,1,0,-1,0.388108842,-884,-209,-0.0009756097560997,0.0273712200487814,-1.6666666666666756,5.796924705683498,58.45528455284551,25,green
8881.377665,1.408374856,1,33,0,0,1,0.484418663,-792,-208,0.0246341463414608,0.0242739776266865,2.032520325203345,5.515587607507594,73.29268292682929,25,green
8884.169299,1.358140175,1,34,1,0,1,0.46803753,-742,-209,0.0497560975609754,0.0260596690700233,1.7073170731707037,5.56420768529069,1.7886178861788995,25,green
8886.927485,1.449919904,1,35,1,0,1,0.485693845,-833,-208,0.0539024390243854,0.0086835966977677,0.4065040650406504,4.289340285167359,3.2926829268291398,25,green
8889.71055,1.375079571,1,36,0,0,1,0.411934363,-758,-208,-0.0462601626016261,0.0080269886485838,-0.4878048780487989,1.956294213905424,2.479674796748022,25,green
8895.393565,1.566619231,1,38,1,1,-1,0.485019991,-950,-209,-0.1059349593495948,0.011819695509194,-0.4065040650406505,6.704976186730026,-74.87804878048777,25,red
8898.310128,1.424916197,1,39,1,1,-1,0.431522881,-808,-208,0.0623577235772345,0.0081988957629126,-0.1219512195121766,4.916515002517248,-2.7235772357723755,25,red
8901.051649,1.491602145,1,40,0,1,-1,0.399624036,-884,-209,0.0582113821138198,0.0127769084128921,-1.056910569105654,3.7495455471867367,62.39837398373979,25,red
8903.901406,1.550053289,1,41,1,0,1,0.43925719,-933,-208,0.0736585365853657,0.0102754707802338,-0.3252032520325018,5.994798018154564,80.77235772357726,25,green
8909.601196,1.583287833,1,43,0,1,-1,0.393313735,-967,-208,-0.0100000000000014,0.023353578933826,-1.8699186991869088,7.1206703380968905,-19.756097560975665,25,red
8912.57599,1.433244639,1,44,0,1,1,0.462599593,-817,-209,-0.0074796747967504,0.0071146340998892,0.8130081300813933,4.017609463611801,75.20325203252033,25,red
8915.384108,1.375041517,1,45,0,0,1,0.455126621,-767,-209,-0.0124390243902479,0.0157480325369791,1.3821138211381558,3.470792553843148,-0.1626016260162065,25,green
8918.058964,1.541622803,1,46,1,0,1,0.383535708,-925,-209,-0.0946341463414616,0.0210915683015886,-1.178861788617877,4.019665453441634,-57.92682926829273,25,green
8923.825537,1.391406799,1,48,0,1,-1,0.420437987,-775,-209,-0.0901626016260094,0.0409586685845975,-2.682926829268255,6.013512886253068,-2.8048780487804783,25,red
8926.741867,1.458239714,1,49,1,1,-1,0.597967011,-842,-209,0.0480487804878029,0.0198537184633838,-1.5040650406503786,7.569057661422905,-4.390243902439007,25,red
8929.483455,1.47485677,1,50,1,0,-1,0.375869563,-859,-209,0.0082113821138189,0.01794447263337,4.332577657073782e-17,5.570440763360141,-3.577235772357752,25,green
8940.841137,1.50824984,1,51,0,1,-1,0.970545876,-891,-208,0.0355284552845556,0.0139681327161195,0.934959349593524,6.707686612141349,63.455284552845534,25,red
8946.690715,1.466675261,1,53,0,0,1,0.494092212,-850,-209,0.0074796747967491,0.0118754859424451,-0.2032520325202789,7.261987771199391,-66.30081300813009,25,green
8949.482266,1.466650263,1,54,1,0,-1,0.41131243,-850,-208,-0.0093495934959352,0.0102225871928457,0.6504065040650039,6.583609120296,-3.1300813008129675,25,green
8952.390432,1.483331494,1,55,0,0,1,0.524003225,-867,-208,0.038861788617883,0.0277093876855216,2.032520325203344,5.756017178254519,74.71544715447152,25,green
8960.889956,1.424939959,1,58,0,1,-1,0.438441393,-809,-209,-0.0309756097560998,0.0084662218191513,-4.627192937754799e-14,5.308887062541349,-75.52845528455283,25,red
8963.989747,1.533289517,1,59,1,1,-1,0.758075907,-917,-209,-0.0019512195121987,0.0089075420649119,-0.4471544715447709,4.066259979729732,4.674796747967479,25,red
8966.906314,1.391645949,1,60,1,1,-1,0.46215105,-775,-208,-0.1125203252032523,0.0335233528957263,-2.31707317073168,3.945393677577706,4.715447154471552,25,red
8972.514267,1.583297364,1,62,0,1,-1,0.387292984,-967,-209,0.0705691056910565,0.0090933423816135,1.0569105691057463,4.061787316031654,-0.8536585365853752,25,red
8978.397378,1.55825242,1,64,1,1,-1,0.526911151,-941,-208,-0.0104065040650379,0.0087571203666202,-0.487804878048799,4.900692700871737,50.0813008130081,25,red
8984.421943,1.408294849,1,66,0,0,1,0.633590185,-792,-209,0.0214634146341477,0.0095201828736942,-0.7723577235772265,2.388362735214619,-67.76422764227648,25,green
8987.280175,1.424939961,1,67,1,0,-1,0.531976005,-808,-208,-0.0658536585365839,0.0160201802804418,-0.2439024390243533,6.317706176234929,-22.723577235772357,25,green
8990.104963,1.441631104,1,68,0,0,1,0.481613882,-825,-209,0.0271544715447102,0.0150948266214964,-0.7723577235772264,5.008090486592564,84.39024390243898,25,green
8992.863237,1.45816399,1,69,0,0,1,0.399783389,-850,-209,0.0407317073170728,0.0091988555674284,0.6504065040650038,4.476346276430856,14.471544715447116,25,green
8995.696452,1.40818013,1,70,1,0,1,0.450237515,-791,-208,0.1168292682926847,0.0095416817660574,0.487804878048845,4.421000365633218,-57.64227642276421,25,green
8998.512871,1.333266962,1,71,0,0,-1,0.489414223,-725,-208,0.0355284552845558,0.0137179312548916,-0.1219512195120842,6.251181394061828,-77.72357723577232,25,green
9001.162753,1.458234952,1,72,0,0,-1,0.397236399,-841,-208,0.0562601626016239,0.0161430743630493,-0.8130081300813007,3.8977783822335312,60.650406504065046,25,green
9004.004238,1.533263449,1,73,0,1,1,0.454460535,-917,-209,0.0484552845528421,0.0080385086792246,0.0406504065040742,3.726558255728604,78.25203252032514,25,red
9006.920697,1.55835153,1,74,1,1,1,0.466200313,-942,-208,0.1788617886178835,0.0189387272970486,1.4634146341463967,6.324503064888049,-59.18699186991866,25,red
9009.853958,1.574854986,1,75,1,1,-1,0.460646088,-959,-209,-0.0382926829268288,0.0099020251692396,-0.2439024390243533,3.364910908386336,-78.04878048780486,25,red
9012.795379,1.574981982,1,76,0,0,-1,0.447275679,-958,-208,-0.0106504065040649,0.0234267696645496,-0.8943089430893568,4.278539770905664,62.27642276422761,25,green
9015.736921,1.366637912,1,77,1,0,1,0.44928101,-750,-208,0.0505691056910567,0.0088919454061502,0.4878048780487989,5.524568217429259,79.43089430894308,25,green
9018.528381,1.366653284,1,78,0,0,1,0.508865296,-751,-209,0.0182926829268281,0.0105716069585612,-0.3658536585365762,4.425109970950768,-3.5365853658535835,25,green
9024.086452,1.366644826,1,80,0,0,1,0.436817007,-750,-208,0.0167479674796731,0.0089939426300147,0.2032520325203714,4.052419431083628,2.1138211382114007,25,green
9026.861347,1.474913857,1,81,1,0,1,0.488303094,-867,-209,-0.0126829268292623,0.011067068504706,-0.1626016260162048,5.747685737279067,-57.52032520325204,25,green
9029.694467,1.375009781,1,82,1,0,-1,0.444531609,-758,-208,-0.0276422764227637,0.0108071993689154,-0.1219512195122228,5.550827520797458,-15.813008130081329,25,green
9032.44437,1.533275134,1,83,1,0,1,0.455357605,-916,-208,0.0219512195121915,0.0112348192976423,0.3252032520325021,5.681466949046542,0.0406504065041389,25,green
9035.602541,1.424914728,1,84,1,0,-1,0.707935701,-808,-208,-0.0838211382113831,0.0089571212904821,-0.4878048780488451,4.451544332358755,-10.203252032520396,25,green
9038.46069,1.391547355,1,85,1,0,1,0.512705967,-775,-209,0.0193495934959362,0.009045971411838,-0.0406504065040743,4.7781090259887256,12.154471544715518,25,green
9041.193905,1.54150725,1,86,1,0,-1,0.425097179,-933,-209,0.0521138211382128,0.0221976531508815,1.382113821138248,4.491823933841107,-10.20325203252034,25,green
9044.035346,1.52499281,1,87,0,0,1,0.382704436,-908,-208,0.0500000000000011,0.0077573076044726,-0.7723577235772726,5.348271267638832,-0.8943089430894826,25,green
9046.87685,1.474910104,1,88,1,1,-1,0.39702742,-859,-209,0.3861788617886151,0.0255294909426912,1.6260162601626014,4.470435930527131,1.991869918699172,25,red
9049.69332,1.483358193,1,89,1,0,1,0.421450322,-866,-208,0.0518699186991828,0.0091599717768811,-0.1626016260162047,4.505414960161539,3.699186991869981,25,green
9052.759799,1.358304967,1,90,0,0,-1,0.661841375,-742,-209,-0.043414634146343,0.0117388914782309,-0.1219512195121303,5.477104895431432,-11.626016260162675,25,green
9055.643039,1.408234691,1,91,0,0,1,0.607744503,-792,-209,0.0414634146341443,0.01119474112394,-0.5284552845528269,5.848575028429671,89.1056910569106,25,green
9058.384596,1.374852188,1,92,1,0,1,0.419250537,-759,-209,0.1025203252032547,0.0147237545611597,0.9349593495935236,3.7003035927559305,-63.21138211382108,25,green
9061.34278,1.5581313,1,93,1,0,-1,0.661739981,-942,-208,-0.1187804878048833,0.0125582784485529,-0.975609756097598,4.938313375165634,-16.66666666666666,25,green
9064.259321,1.533149642,1,94,1,0,1,0.442047384,-925,-209,-0.0015447154471495,0.0215788960340538,-1.2601626016259797,5.711924575690851,78.04878048780493,25,green
9067.317384,1.408259232,1,95,1,0,1,0.606631773,-791,-208,-0.0113008130081244,0.0102658173123018,-0.5691056910568552,5.908169853340975,8.536585365853565,25,green
9070.042289,1.32481664,1,96,1,0,1,0.4018382,-717,-208,0.0036585365853618,0.0044157644273168,0.0813008130081485,2.575452692919731,-66.21951219512191,25,green
9072.625379,1.341576648,1,97,1,1,-1,0.343746269,-725,-208,0.0156910569105735,0.0208418879917933,-1.2195121951219512,5.1930794870475365,-78.94308943089433,25,red
9075.441911,1.483275362,1,98,1,1,-1,0.560644369,-866,-208,-0.1031707317073121,0.011449856480811,-0.1626016260163433,4.414267304227056,56.86991869918693,25,red
9078.400164,1.408201533,1,99,0,1,1,0.553431263,-791,-208,-0.0897560975609793,0.019710711022785,-1.6666666666666756,4.8834658268882345,15.81300813008136,25,red
9081.150008,1.349946509,1,100,0,1,-1,0.431693028,-733,-209,0.0363414634146303,0.0133323418231373,0.284552845528474,4.909788340449995,-69.99999999999997,25,red
9089.857777,1.483270433,1,101,0,1,-1,0.719620401,-867,-209,-0.014308943089428,0.0076871197746817,-0.0406504065040743,4.006901310683592,-4.674796747967481,25,red
9092.649257,1.583363861,1,102,0,0,-1,0.394500712,-967,-209,0.0383739837398333,0.0145843778838964,-1.34146341463422,3.378144168181644,58.98373983739833,25,green
9095.599175,1.433225552,1,103,1,0,1,0.446237118,-817,-209,-0.1600000000000046,0.0235247523507499,-1.3414634146340352,5.511991266585517,69.0650406504065,25,green
9101.12383,1.524925548,1,105,0,1,-1,0.399825414,-909,-209,0.0268292682926849,0.0122113712881421,-0.1626016260162047,5.306396381164408,-12.845528455284526,25,red
9104.106993,1.374930934,1,106,0,1,1,0.535172706,-767,-208,0.031056910569114,0.0060763859970906,0.1626016260162971,3.961277305716792,68.94308943089429,25,red
9107.115149,1.541675227,1,107,1,0,1,0.717973211,-934,-209,-0.1182113821138229,0.0248245878636807,-1.4634146341463046,5.142878913257366,-1.422764227642276,25,green
9110.281667,1.341586939,1,108,0,1,1,0.710556101,-725,-209,-0.0165040650406529,0.0082934799553213,0.2032520325203713,3.591527253839335,-4.959349593495954,25,red
9113.056493,1.458350497,1,109,1,0,1,0.512912427,-842,-208,-0.0124390243902422,0.0070913699145872,-0.4878048780487066,3.6671082963718327,-53.61788617886178,25,green
9115.831371,1.408234848,1,110,1,1,-1,0.398515452,-792,-209,-0.0412195121951261,0.0060173587219399,0.0406504065039818,3.38352065799805,-8.211382113821145,25,red
9118.631264,1.566507818,1,111,0,1,1,0.472346,-950,-209,-0.0008130081300813,0.0121962059138853,-1.5853658536584354,7.543471301959889,81.62601626016263,25,red
9121.61432,1.416576493,1,112,0,0,1,0.49962382,-800,-209,0.0275609756097609,0.0146309843015644,-0.8943089430894492,4.554659917213008,-53.57723577235775,25,green
9124.430892,1.349964966,1,113,1,0,-1,0.48274225,-733,-208,0.0148780487804891,0.0083980237454417,0.2439024390243532,4.317371722716344,-11.951219512195111,25,green
9127.655648,1.458342184,1,114,1,0,1,0.955506532,-850,-209,-0.0463414634146313,0.0331743183139889,-1.4634146341463046,5.324117061693356,62.47967479674799,25,green
9130.397169,1.358298147,1,115,0,0,1,0.366587303,-750,-208,-0.0627642276422727,0.0109318610172173,0.8943089430894494,3.737627484218655,-2.032520325203251,25,green
9133.038773,1.44987894,1,116,0,1,1,0.366661819,-842,-208,-0.0183739837398388,0.0278167615930958,-1.4634146341463512,6.483198234126854,-56.66666666666671,25,red
9136.046869,1.474961621,1,117,1,1,-1,0.639980876,-859,-209,0.0652845528455297,0.0127934521225501,0.9349593495933852,4.771879866936421,-68.61788617886172,25,red
9138.805149,1.524830669,1,118,0,1,-1,0.366886136,-909,-209,-0.0145528455284543,0.0136643425522959,-0.8536585365853291,4.449687897759496,48.008130081300784,25,red
9141.796595,1.391557658,1,119,1,0,1,0.551780514,-775,-209,0.1609756097561002,0.0110371655359641,0.1219512195120841,4.618072250917422,60.609756097561,25,green
9144.62969,1.541627186,1,120,1,0,1,0.526348339,-933,-208,-0.0071544715447123,0.0083877856107506,-0.4065040650406503,4.739565458179616,-62.27642276422765,25,green
9147.554637,1.508158095,1,121,0,0,-1,0.461881903,-892,-208,-0.0667479674796702,0.0060008592153649,-0.2439024390244457,3.654469283846975,-2.032520325203256,25,green
9150.57118,1.474911317,1,122,1,0,1,0.594435201,-858,-208,-0.0038211382113838,0.0114302119631192,0.0406504065040742,4.959016382248698,75.32520325203261,25,green
9153.387599,1.383286006,1,123,1,0,1,0.427505732,-767,-209,0.1001626016260151,0.0106308390968681,-0.7317073170732445,4.9802969579812215,0.6097560975608838,25,green
9156.512381,1.541638015,1,124,0,0,1,0.822728136,-925,-209,0.1186178861788632,0.0290854723796862,2.2764227642276977,4.549577805257545,-0.569105691056949,25,green
9159.520592,1.358212085,1,125,1,1,1,0.548789102,-741,-208,0.0386178861788597,0.0159759717785173,0.6504065040650961,5.605335833619313,-57.47967479674792,25,red
9162.303774,1.54156664,1,126,1,1,-1,0.506821219,-925,-209,-0.1521138211382134,0.0096395477294486,-0.8943089430895418,4.643052346414868,-63.53658536585364,25,red
9168.095195,1.558175107,1,128,0,1,-1,0.443103328,-941,-208,-0.0827642276422761,0.0242816008505169,-1.2195121951219974,6.717533485633793,3.008130081300804,25,red
9171.020026,1.458243992,1,129,0,1,-1,0.445257712,-842,-208,-0.0956910569105688,0.0093180805085494,0.1626016260162971,4.711240063236016,3.943089430894328,25,red
9173.93642,1.458277038,1,130,1,1,-1,0.541626342,-841,-208,0.0516260162601625,0.0106302173194673,0.0,5.28330191573322,-2.2357723577235777,25,red
9176.777958,1.408336059,1,131,1,1,-1,0.463691103,-792,-209,-0.0316260162601582,0.0104887501937366,0.5284552845527346,5.660195065804676,2.682926829268302,25,red
9179.486142,1.416662073,1,132,0,1,-1,0.384516331,-800,-208,0.0452032520325214,0.015388420646256,-1.8292682926829733,4.990572114869056,3.008130081300804,25,red
9182.244288,1.566736001,1,133,1,1,-1,0.420862175,-950,-208,-0.1728455284552862,0.0308848937300721,-2.195121951219549,5.731563164882976,0.7317073170731998,25,red
9185.060793,1.358408948,1,134,0,1,-1,0.328411551,-742,-208,-0.0299999999999972,0.0183094773853792,-0.8536585365852827,5.00842043293069,59.43089430894311,25,red
9187.794088,1.566498434,1,135,1,0,1,0.448540837,-950,-209,0.0843089430894294,0.0160148156667745,-1.0975609756097284,4.73712427055539,-1.2195121951220067,25,green
9190.710529,1.39165483,1,136,1,0,-1,0.435589016,-775,-208,0.0094308943089389,0.0088956613766435,0.4878048780486603,3.477451611048413,-76.78861788617888,25,green
9193.435375,1.399952906,1,137,1,1,-1,0.414369178,-783,-208,-0.0131707317073144,0.0084872753160034,0.2032520325203252,5.009410141552574,53.29268292682928,25,red
9196.1519,1.524939131,1,138,0,1,1,0.400196434,-917,-209,0.066341463414638,0.0119818753996359,-0.7723577235771802,5.411239444648267,14.47154471544716,25,red
9202.018199,1.508279914,1,140,1,1,-1,0.548444755,-892,-209,-0.1143902439024448,0.0163266931591041,-1.3008130081301,5.391353550451044,59.22764227642279,25,red
9204.793154,1.416493057,1,141,1,0,1,0.349305728,-800,-209,0.0292682926829291,0.0072717657804871,-0.162601626016297,4.739914096633601,75.24390243902441,25,green
9207.651266,1.541560071,1,142,0,0,1,0.523623963,-933,-208,0.1102439024390224,0.007860573635949,0.4065040650406503,4.4748694217957,-2.317073170731725,25,green
9213.792643,1.524907541,1,144,1,0,1,0.766857858,-908,-208,0.0139024390243915,0.0204836103591119,1.3821138211382484,4.698244483082612,-7.601626016260091,25,green
9216.617466,1.56657861,1,145,0,1,1,0.384172348,-950,-208,0.192032520325196,0.0327588811228125,2.520325203252051,4.101059933379356,-68.41463414634153,25,red
9219.517284,1.474904581,1,146,0,1,-1,0.413077569,-858,-208,0.025365853658535,0.0118660200747582,-0.5691056910569475,4.751404814336287,-64.51219512195118,25,red
9228.108536,1.416487986,1,149,1,1,-1,0.405147274,-800,-209,0.0932520325203215,0.0129393506876961,-0.2439024390244458,5.589393939271501,-2.2764227642276507,25,red
9230.858338,1.491491876,1,150,1,0,-1,0.415772121,-875,-208,-0.0595934959349606,0.0062129994063556,-0.1626016260162048,3.468887618159949,56.86991869918708,25,green
9238.882849,1.533322254,1,151,1,0,1,0.540665714,-916,-208,-0.0403252032520276,0.0187337961798264,-1.422764227642323,4.722100716574664,67.47967479674787,25,green
9241.915951,1.5083788,1,152,0,0,1,0.581608978,-892,-208,0.0960162601626022,0.0081300813008127,-0.5284552845527809,4.999173703948704,3.048780487804971,25,green
9244.857478,1.55006629,1,153,0,0,1,0.51790753,-933,-208,0.1696747967479735,0.0219355559894023,1.666666666666722,6.807456457049869,-63.90243902439031,25,green
9247.82404,1.349904297,1,154,0,1,-1,0.494940427,-742,-209,-0.0214634146341474,0.01277742572805,-0.4878048780486604,6.238744905817861,-79.10569105691053,25,red
9250.89048,1.416614469,1,155,1,1,-1,0.800891579,-800,-209,0.0581300813008099,0.0085082767167163,0.1626016260162047,4.880758055220466,58.86178861788616,25,red
9253.723741,1.358254289,1,156,0,0,1,0.499124604,-741,-208,0.0078861788617882,0.0118688049371673,-0.5691056910568553,5.780653605846276,77.92682926829268,25,green
9256.481949,1.383236763,1,157,1,0,1,0.4839214,-766,-208,0.1290243902439025,0.0228884531498605,1.869918699186955,6.194620469215246,-55.04065040650405,25,green
9259.264995,1.516630888,1,158,0,0,-1,0.486021285,-900,-209,0.0965853658536535,0.0107649153613239,0.3252032520325018,4.002362313869423,-75.0,25,green
9262.339838,1.39995463,1,159,0,1,-1,0.641537106,-784,-209,-0.0100813008130063,0.0053720092802216,-2.166288828536891e-17,2.6798454835527714,5.813008130081328,25,red
9265.414677,1.55004262,1,160,1,1,-1,0.754852781,-942,-209,0.0577235772357751,0.0088643988100412,-0.2439024390243532,3.7820173494675737,9.146341463414588,25,red
9268.306239,1.34991121,1,161,0,1,-1,0.427826744,-734,-209,0.0899186991869949,0.0146503974806647,-0.2032520325203251,6.957041255348497,53.57723577235774,25,red
9271.089333,1.566722601,1,162,1,1,1,0.518788834,-950,-208,0.0295934959349618,0.0128408965612221,-0.1219512195121303,8.118284123763699,-2.3170731707317183,25,red
9274.097577,1.424898245,1,163,0,1,-1,0.528778131,-809,-209,-0.0886991869918737,0.0203440562968931,-2.032520325203252,3.9045556590444814,-8.089430894308927,25,red
9276.855759,1.474895059,1,164,0,1,1,0.413363887,-867,-208,-0.035853658536588,0.0146156160911302,1.5040650406504712,5.3698556152938,13.617886178861824,25,red
9279.738875,1.366701098,1,165,1,1,-1,0.492526219,-750,-208,0.103089430894306,0.0076232248258411,0.853658536585329,4.15032488393489,-3.861788617886227,25,red
9282.488761,1.541557511,1,166,1,1,1,0.462516002,-925,-208,0.0142276422764212,0.006126219913426,0.1626016260162048,3.603011350595722,65.8130081300813,25,red
9285.271923,1.383258258,1,167,0,1,1,0.321007956,-767,-209,-0.0695121951219495,0.0225113715287693,-1.7479674796748246,4.951680061883922,5.081300813008131,25,red
9288.038447,1.549914027,1,168,1,0,1,0.472349907,-934,-209,-0.0304878048780467,0.0123180793278172,-0.772357723577319,5.233019525773759,-12.317073170731687,25,green
9291.013289,1.516532737,1,169,1,0,1,0.507738708,-900,-208,-0.0141463414634143,0.0082182214132079,0.487804878048799,5.337446361681393,-63.33333333333332,25,green
9296.729639,1.574892566,1,171,1,1,-1,0.437372617,-958,-208,0.0975609756097531,0.0228552188457759,1.6666666666666758,3.8956580652716286,2.1951219512195026,25,red
9299.796197,1.391538337,1,172,0,1,-1,0.576143906,-775,-208,0.0865853658536604,0.0070013171192231,-0.1219512195122228,4.345982849074428,6.463414634146333,25,red
9302.554423,1.45817896,1,173,0,1,-1,0.445048682,-841,-208,0.0341463414634176,0.0318439831419349,2.1138211382114007,4.842007778643265,1.1382113821138022,25,red
9305.687553,1.341500709,1,174,1,1,-1,0.756145953,-724,-208,0.0165040650406453,0.007032402837498,0.0406504065040281,4.023774281513464,62.31707317073179,25,red
9308.34571,1.574885255,1,175,1,0,1,0.395344239,-959,-209,-0.0396747967479684,0.0150259211552423,1.138211382113803,4.958349892576557,74.39024390243893,25,green
9311.303894,1.483225166,1,176,1,0,1,0.465783079,-867,-208,-0.0338211382113872,0.0075034968823656,-0.2032520325202789,3.8289144192897258,-69.43089430894307,25,green
9314.211994,1.474944248,1,177,1,0,-1,0.510721797,-859,-209,0.1432520325203196,0.0189167268319679,1.7073170731707503,3.5016025150176184,-65.8130081300813,25,green
9317.020218,1.574932979,1,178,1,0,-1,0.418802838,-959,-209,-0.0046341463414638,0.0129439473507387,0.6504065040650038,6.245627725730205,63.17073170731714,25,green
9320.278289,1.508349504,1,179,0,0,1,0.766203233,-892,-208,0.0644715447154469,0.0124817270100982,0.853658536585375,4.74444406519249,67.60162601626016,25,green
9323.069908,1.499905211,1,180,0,1,1,0.367119241,-883,-208,-0.0038211382113768,0.0092103451651211,-0.2845528455284275,3.207005353384471,-50.162601626016304,25,red
9325.894718,1.399953903,1,181,0,1,-1,0.407594136,-784,-209,0.0200813008129971,0.0077734802060499,0.2845528455283813,4.384971239077118,-63.04878048780488,25,red
9328.711221,1.333228034,1,182,0,1,-1,0.49991956,-725,-208,0.0210569105691059,0.0085555345242772,-0.4065040650406504,4.144747023262061,-4.227642276422755,25,red
9331.444312,1.483305617,1,183,0,0,-1,0.485824907,-867,-209,0.1711382113821103,0.01836030860266,1.138211382113803,4.889552830489549,55.73170731707318,25,green
9337.260708,1.458262061,1,185,0,1,-1,0.551677026,-842,-209,0.0004878048780579,0.013575531756171,0.8943089430894032,4.98096051097265,-5.813008130081293,25,red
9340.018855,1.40829512,1,186,1,0,1,0.380278617,-792,-209,-0.1007317073170676,0.0095437597338729,-0.28455284552852,5.665739271606277,11.260162601626025,25,green
9342.768816,1.483268158,1,187,0,1,-1,0.423418235,-866,-208,-0.0288617886178832,0.00965256720628,-0.5284552845528732,4.089762226148072,-15.365853658536674,25,red
9345.910189,1.37505291,1,188,1,0,1,0.742938042,-758,-208,-0.0979674796747924,0.0344035992441843,-2.3577235772357543,6.717041484791742,11.178861788617867,25,green
9348.743369,1.525068638,1,189,0,1,-1,0.542840045,-908,-208,0.0378048780487785,0.0098806413674275,-0.7317073170731985,7.100219284447357,-9.796747967479638,25,red
9351.651536,1.433302546,1,190,1,0,1,0.462526884,-825,-208,-0.0447967479674771,0.0077231493249024,-0.528455284552827,4.57457069809239,64.22764227642269,25,green
9354.576399,1.558316676,1,191,1,0,1,0.57405669,-941,-208,0.0595121951219488,0.007908358718249,-0.487804878048799,5.717418619381294,-55.08130081300804,25,green
9357.50121,1.366689021,1,192,0,1,-1,0.453139088,-750,-208,0.0478048780487867,0.0086362742926105,0.1219512195121767,5.526362588141637,-7.1138211382114,25,red
9360.376109,1.383241436,1,193,1,0,1,0.592608172,-775,-208,0.0596747967479656,0.0146485926888525,0.2845528455283813,6.114340057549021,16.422764227642215,25,green
9363.859191,1.416702545,1,194,0,0,-1,1.180829316,-800,-208,0.1114634146341498,0.0472674564545772,2.7642276422764045,7.673995755362906,-11.341463414634148,25,green
9367.000738,1.491652692,1,195,0,0,1,0.808532441,-875,-208,-0.0166666666666662,0.014163152332642,-1.0569105691057004,6.6540133737808045,63.33333333333337,25,green
9371.408821,1.474881778,1,196,1,0,1,2.000833701,-858,-208,-0.1364227642276386,0.0392650102147746,-2.2764227642276977,5.331250832765631,-57.52032520325203,25,green
9374.625358,1.533245862,1,197,0,0,-1,0.825582713,-917,-208,-0.0931707317073166,0.0165206772896352,-1.0975609756097284,4.349403536616269,-14.146341463414656,25,green
9377.541892,1.366529521,1,198,1,0,1,0.462655335,-750,-209,0.0044715447154473,0.0137439258842256,1.5040650406504712,4.810851527383937,66.91056910569107,25,green
9380.374945,1.550001014,1,199,0,0,1,0.552101274,-933,-208,-0.0956097560975593,0.0159349593495937,-1.0569105691057468,3.0963764459415923,-0.8536585365853288,25,green
9383.216504,1.583207512,1,200,0,1,1,0.375058767,-967,-209,0.1078861788617849,0.0080047246277383,-0.040650406504028,3.67161168539104,-59.67479674796746,25,red
9398.040749,1.349844272,1,201,0,1,-1,0.834767322,-734,-209,-0.0004878048780516,0.0056455790339046,-0.2439024390244457,3.2626858025724075,-13.861788617886182,25,red
9400.773921,1.416536536,1,202,1,0,1,0.463357034,-801,-209,-0.0256910569105669,0.0157017950535187,0.4471544715446782,6.974832712041365,71.01626016260158,25,green
9403.573702,1.474932159,1,203,1,0,1,0.464027215,-859,-209,0.013170731707316,0.0114821388912121,-0.7723577235771805,3.7557103942928336,0.813008130081301,25,green
9409.423452,1.458246541,1,205,0,0,-1,0.486228718,-841,-208,0.0098373983739784,0.0210074127089381,1.7479674796748244,3.877375476312348,-2.398373983739941,25,green
9412.28991,1.549933818,1,206,0,0,1,0.491597682,-933,-208,0.162032520325195,0.0143550624093289,0.2439024390244457,6.662203542723865,63.17073170731714,25,green
9415.489658,1.350041953,1,207,1,1,1,0.733420711,-734,-209,0.0135772357723588,0.0317729152575257,-2.7642276422764045,4.722800546251131,-4.3495934959350695,25,red
9418.414551,1.35830345,1,208,0,0,1,0.655471726,-742,-208,0.0723577235772323,0.0126490061297765,0.6097560975610219,5.241538510473256,-55.24390243902429,25,green
9421.231095,1.583253797,1,209,0,1,-1,0.538237218,-966,-208,-0.0101626016260165,0.0130563132020197,-0.7317073170731521,5.232387938115203,-77.80487804878052,25,red
9427.480761,1.533206935,1,211,1,0,-1,0.611893343,-917,-209,0.0358536585365842,0.0071470767401092,0.772357723577319,3.8271877385171793,68.45528455284557,25,green
9430.680592,1.49153725,1,212,0,1,1,0.745065324,-876,-209,0.0845528455284528,0.0167728128916083,1.422764227642184,4.946337721758179,76.1382113821138,25,red
9433.788671,1.425027212,1,213,1,0,1,0.698011397,-809,-209,-0.0112195121951215,0.0098706017631063,1.0569105691057006,5.8057547560500256,-6.5040650406504055,25,green
9436.621936,1.533243611,1,214,0,0,1,0.489473078,-916,-208,0.0850406504065023,0.0254664982713725,1.7479674796748708,5.934959349593098,-9.79674796747973,25,green
9439.613342,1.549977999,1,215,1,1,1,0.539338102,-933,-208,-0.0180487804878041,0.0138302217878663,-1.2601626016260716,6.07964848645222,-58.21138211382111,25,red
9445.554767,1.374994643,1,217,1,1,1,0.583924155,-758,-208,-0.0026016260162542,0.01285992812338,0.0813008130080563,5.678266696011336,24.75609756097565,25,red
9448.479575,1.566492631,1,218,0,1,-1,0.629441833,-951,-209,-0.0319512195121974,0.0193700786555301,-0.8130081300813471,4.133968467126547,-69.22764227642273,25,red
9451.504372,1.541567112,1,219,1,1,-1,0.53718374,-934,-209,0.0347967479674785,0.0083538316204646,-0.162601626016297,4.908441901828919,66.58536585365852,25,red
9454.545853,1.49161327,1,220,0,0,1,0.585948697,-876,-209,0.0127642276422735,0.0150786161132428,-0.650406504065096,5.032119715591375,11.707317073170756,25,green
9457.470724,1.458313303,1,221,1,1,-1,0.513682437,-842,-209,0.0271544715447227,0.0064999987288802,0.528455284552827,4.377805324209073,-69.39024390243905,25,red
9463.387007,1.524967741,1,223,1,1,-1,0.52714929,-908,-208,0.0082926829268298,0.0099153666266093,0.0406504065040279,7.1234545690294455,59.51219512195125,25,red
9466.336951,1.349844874,1,224,1,0,1,0.503826261,-733,-208,-0.0534959349593535,0.0103606714289914,0.6504065040650959,4.430707835264861,68.08943089430889,25,green
9474.903118,1.46654306,1,227,1,0,1,0.524236074,-850,-209,-0.0426016260162588,0.0068224898609453,-0.2032520325202789,4.232330108884384,-59.5528455284552,25,green
9477.777917,1.491685808,1,228,1,0,-1,0.494695941,-875,-208,0.0475609756097582,0.012296059242958,1.0162601626015333,5.370778720297259,-68.53658536585367,25,green
9480.611105,1.44990726,1,229,0,1,-1,0.427521581,-834,-209,0.0568292682926857,0.0093668980899136,-0.2845528455284276,5.032448086482884,66.82926829268287,25,red
9483.577673,1.349894788,1,230,1,0,1,0.603701858,-733,-208,-0.0284552845528441,0.008757875128127,-0.4065040650406504,5.293301076636863,69.87804878048779,25,green
9486.419058,1.425044913,1,231,0,0,1,0.577552351,-808,-208,0.0026829268292702,0.0123212984783564,-0.5691056910569474,4.562272470438543,0.0406504065041223,25,green
9489.252238,1.549992745,1,232,0,0,1,0.492407786,-933,-208,0.0401626016260216,0.0163218342651442,1.1382113821138025,3.614916109823963,-67.43902439024389,25,green
9492.252186,1.483268852,1,233,0,1,-1,0.535558672,-866,-208,-0.0295121951219527,0.0073432233707818,-0.93495934959357,4.4789296002729655,-77.03252032520325,25,red
9495.276902,1.416679901,1,234,1,1,-1,0.62555068,-800,-208,-0.071544715447153,0.0077521934576003,-0.3252032520325018,3.3981405762611177,63.13008130081295,25,red
9498.235111,1.499916859,1,235,1,0,1,0.620115023,-884,-209,0.1265853658536597,0.0135428706812325,0.8130081300813009,5.786653544479307,77.47967479674801,25,green
9501.251572,1.533361601,1,236,0,0,1,0.602704045,-916,-208,0.0313008130081307,0.0102857578265142,0.4878048780487989,4.941992818025698,-0.4065040650407424,25,green
9507.417908,1.45836427,1,238,0,1,-1,0.647579312,-841,-208,0.0782113821138204,0.0167527027799378,0.6097560975609295,6.330509614006677,-57.88617886178866,25,red
9510.409424,1.47495477,1,239,1,1,-1,0.615110618,-858,-208,-0.0594308943089401,0.0128342030963713,-0.975609756097598,3.012521514414485,83.29268292682927,25,red
7699.985339,1.374880444,1,1,1,0,-1,1.153531855,-759,-209,0.0607317073170757,0.0139510868528951,1.016260162601626,5.28173783685834,67.47967479674791,50,green
7702.743454,1.366626982,1,2,0,0,1,0.463901028,-751,-209,0.0040650406504064,0.010466039051547,-0.2439024390243533,6.360457275172064,80.16260162601624,50,green
7705.443336,1.399926049,1,3,1,1,1,0.410807371,-784,-209,0.1067479674796772,0.0086171191559258,-0.3252032520325019,6.504319100729035,-10.08130081300811,50,red
7708.268215,1.549909527,1,4,1,1,1,0.494341629,-933,-208,-0.085121951219512,0.009298197369428,0.1626016260162048,5.004129433650062,-62.60162601626017,50,red
7711.317995,1.474996648,1,5,1,1,-1,0.566800684,-858,-208,-0.0526829268292693,0.0088837647997711,0.1626016260162048,6.426622284711607,-66.6260162601626,50,red
7714.13446,1.475011084,1,6,1,0,-1,0.415626274,-858,-208,0.0652845528455282,0.0121206397571854,-0.0406504065040743,6.306187060413368,60.52845528455288,50,green
7717.167636,1.39993901,1,7,0,0,1,0.638948694,-783,-208,-0.0615447154471578,0.0110652766054301,-0.2439024390244457,5.577259475168344,74.83739837398373,50,green
7722.992341,1.433300008,1,9,1,0,1,0.498143958,-817,-208,0.0478861788617851,0.0095139321602085,0.2439024390243532,4.960015948835733,-26.219512195122,50,green
7725.758929,1.558198312,1,10,0,1,1,0.415993555,-941,-208,0.0021138211382114,0.0120528283908349,0.9349593495934776,5.485244810872277,2.5203252032520527,50,red
7728.675319,1.475015033,1,11,1,1,1,0.437178901,-858,-208,-0.1663414634146355,0.0150360353279899,-1.747967479674686,6.136999826590241,-33.373983739837406,50,red
7731.625155,1.42502059,1,12,1,1,-1,0.554656404,-809,-208,-0.0087804878048745,0.0090758803542053,-0.4065040650406504,4.193498772133078,-10.203252032520284,50,red
7734.741639,1.466629807,1,13,1,0,1,0.775141234,-850,-208,-0.1064227642276407,0.0137314160943766,-1.260162601626118,5.864094130687354,75.56910569105696,50,green
7740.324654,1.350033199,1,15,0,0,1,0.402566896,-733,-208,-0.0260162601626022,0.0101811213367814,-0.4065040650406503,4.429215763211826,-1.3008130081300062,50,green
7745.732776,1.549864518,1,17,0,1,-1,0.43644172,-934,-209,0.0836585365853614,0.018122970642487,0.2032520325202789,6.8589656274458735,-76.09756097560972,50,red
7754.53226,1.366663787,1,20,1,1,1,0.636498084,-750,-208,-0.0058536585365878,0.0120292238947522,0.2439024390244919,6.317706176234887,0.6504065040650043,50,red
7757.265474,1.516595679,1,21,0,0,1,0.44706258,-900,-208,0.095691056910571,0.0122804602201622,0.4471544715447245,4.371383758949684,-1.7886178861788065,50,green
7760.340258,1.383256439,1,22,0,1,1,0.63687489,-767,-209,-0.0423577235772327,0.0142329838985488,-0.9756097560975056,5.726082692572786,1.0162601626016263,50,red
7763.031819,1.399885279,1,23,0,1,1,0.392359067,-784,-209,-0.1060162601626019,0.0148480304929017,-0.36585365853653,5.576666874680431,0.4065040650405566,50,red
7765.8566,1.50826937,1,24,1,1,1,0.508340289,-900,-208,0.0359349593495887,0.0141766799246147,0.8536585365854215,6.848356984720975,-0.5284552845527337,50,red
7768.964707,1.508294879,1,25,0,1,1,0.685952476,-892,-209,-0.006260162601626,0.0109445510566663,-0.5691056910569936,6.621900063185881,-59.59349593495936,50,red
7771.831223,1.424983561,1,26,0,0,-1,0.44282877,-817,-208,0.0111382113821138,0.0114481244969638,-0.4878048780487989,7.382722656745691,-66.38211382113822,50,green
7777.364245,1.458289799,1,28,1,0,-1,0.438354396,-850,-208,-0.0465040650406525,0.022412202657176,-1.951219512195057,6.604408881192098,56.62601626016263,50,green
7780.197468,1.52493019,1,29,1,0,1,0.461418771,-917,-209,0.0481300813008077,0.0143472325840585,1.2195121951219048,5.607104357352579,21.38211382113823,50,green
7789.138625,1.424888047,1,32,0,0,-1,0.63140705,-808,-208,-0.0165040650406515,0.0235562003161795,-1.341463414634174,6.908416690143298,-21.21951219512193,50,green
7792.046761,1.34994493,1,33,0,0,-1,0.568764904,-733,-208,0.0055284552845546,0.0115561605926704,0.4878048780487988,7.555072439869764,8.414634146341434,50,green
7794.763277,1.42491341,1,34,0,0,-1,0.447993264,-817,-209,-0.0610569105691098,0.0277708630431168,-1.7073170731707503,5.8375455741568665,9.349593495935006,50,green
7797.513241,1.39989622,1,35,0,0,-1,0.407888889,-783,-208,0.0180487804878018,0.0142751819006274,-0.365853658536576,5.133874365981762,60.28455284552839,50,green
7800.171393,1.391556001,1,36,0,1,1,0.339299216,-775,-208,-0.0517073170731772,0.0162784450064784,-1.341463414634128,5.880696364236137,3.1300813008130786,50,red
7802.94623,1.508272319,1,37,0,1,-1,0.466795248,-891,-208,-0.0480487804878029,0.0095990062719644,0.3252032520325942,5.298917312780766,-70.16260162601627,50,red
7808.78748,1.566575726,1,39,1,1,-1,0.598276031,-950,-209,-0.1238211382113773,0.0280232003068277,-2.2764227642276054,5.723484847739336,-3.4146341463414536,50,red
7814.645558,1.499826816,1,41,0,0,1,0.546409297,-884,-209,0.0752032520325159,0.0147233056319866,0.4878048780487064,5.438046018923624,16.585365853658427,50,green
7817.4787,1.358320265,1,42,1,0,-1,0.411686791,-742,-208,0.1179674796747928,0.0111681397212978,0.8943089430894031,4.554659917212796,-11.951219512195069,50,green
7820.420178,1.358395013,1,43,0,0,1,0.664084947,-741,-208,0.0079674796747959,0.0114290553517365,-0.325203252032548,5.349815894751899,4.2276422764227455,50,green
7823.320065,1.383308728,1,44,0,0,-1,0.619745609,-767,-208,-0.0061788617886176,0.0181204174178661,1.707317073170704,7.786860979432943,-11.260162601626035,50,green
7826.203213,1.424927992,1,45,0,0,1,0.583807991,-809,-209,-0.0516260162601599,0.0175217870478364,-1.4634146341463043,6.858965627445602,15.894308943089438,50,green
7834.802748,1.383330549,1,48,1,1,1,0.409556143,-775,-208,-0.0079674796747967,0.0106320825425825,-0.7723577235771805,5.423745355594811,-4.2276422764228,50,red
7837.51087,1.524960849,1,49,1,1,1,0.405555128,-917,-208,-0.0841463414634163,0.0096024486268434,-0.6910569105690779,4.799158826419836,-58.983739837398346,50,red
7840.394042,1.491689811,1,50,0,1,-1,0.442004246,-875,-208,0.0022764227642281,0.0075061391138754,0.9349593495934776,5.180335714495578,-16.34146341463416,50,red
7938.263579,1.499944785,1,51,0,0,1,1.058972414,-892,-208,0.043252032520326,0.0197629550813846,1.5040650406503788,6.146416741484418,-4.227642276422757,50,green
7943.9577,1.38051325,1,53,1,0,-1,0.446416678,-764,-208,-0.0461788617886173,0.011588717244541,-0.2439024390243069,5.391966517714326,-3.86178861788618,50,green
7949.612988,1.574892761,1,55,1,0,-1,0.529718664,-958,-208,0.0640650406503999,0.0137338227081485,0.853658536585329,5.891084063138033,62.84552845528456,50,green
7955.312708,1.549891586,1,57,1,0,-1,0.367491401,-934,-209,-0.1417073170731713,0.0122998215603753,-1.01626016260158,3.585540987186953,-9.674796747967507,50,green
7958.512486,1.333245923,1,58,0,1,1,0.732829798,-717,-209,0.0524390243902492,0.0133119995894286,0.772357723577319,5.154753653381484,17.886178861788654,50,red
7961.312291,1.35824537,1,59,1,1,-1,0.549538135,-750,-209,-0.0657723577235809,0.010894308943089,-0.3658536585365761,5.9527520351171646,-11.829268292682992,50,red
7967.270379,1.349899782,1,61,0,1,1,0.610331731,-734,-209,-0.0017886178861781,0.0084019581676514,-0.2439024390244457,4.285871659544078,-60.12195121951223,50,red
7970.011937,1.333210138,1,62,0,0,-1,0.471881545,-716,-208,-0.0971544715447145,0.0242513661334033,1.788617886178853,5.313864923046668,-10.73170731707316,50,green
7972.770001,1.483284265,1,63,0,0,1,0.507764377,-867,-209,0.0032520325203284,0.0100622689486515,8.665155314147564e-17,5.472275528333011,14.796747967479648,50,green
7978.511338,1.524928999,1,65,0,0,-1,0.460279474,-908,-208,0.0830081300812961,0.014267308237412,0.6097560975609295,7.322942542064861,55.81300813008128,50,green
7981.369484,1.516657331,1,66,1,0,1,0.4176985,-900,-209,-0.0752032520325159,0.0108852043013259,-0.1626016260162046,4.475238681145641,12.682926829268316,50,green
7984.227725,1.391650698,1,67,1,1,-1,0.415004831,-775,-208,-0.0554471544715503,0.0090707809307197,0.1626016260161588,5.568067080174092,-0.4878048780488027,50,red
7986.985943,1.549926665,1,68,0,1,1,0.449236569,-933,-208,0.0804878048780482,0.0118932836083964,-1.138211382113895,4.604095978786673,11.910569105691073,50,red
7989.952407,1.449906682,1,69,0,1,-1,0.501043981,-834,-209,-0.0696747967479703,0.0117905801562819,-0.7317073170731524,6.07148897601581,-67.03252032520331,50,red
7992.902247,1.458236899,1,70,0,1,-1,0.57033205,-842,-209,0.0790243902439037,0.0101616259694268,-0.650406504065096,5.7603218159083625,10.731707317073209,50,red
7995.743731,1.341676127,1,71,0,1,-1,0.477394934,-734,-209,0.0440650406504092,0.0101531663517068,0.8130081300813471,6.555185283024728,-4.308943089430903,50,red
7998.4961,1.555724237,1,72,1,1,-1,0.497174071,-940,-209,-0.042601626016259,0.0093957855045159,0.6097560975609293,2.673672138602829,47.88617886178864,50,red
8001.426702,1.358297979,1,73,1,0,1,0.457588338,-742,-209,0.095040650406508,0.0125966420776322,0.8943089430894497,7.242392148637095,8.333333333333274,50,green
8007.134824,1.383261274,1,75,0,0,1,0.571612004,-766,-208,0.028211382113819,0.0048385938264609,-0.325203252032548,3.629514517975736,71.13821138211381,50,green
8009.859598,1.374935285,1,76,0,0,1,0.424786683,-767,-208,0.1282926829268308,0.0080483698671638,-0.3658536585365761,2.9335965126291343,2.3170731707317254,50,green
8012.801191,1.383225137,1,77,0,0,1,0.652479414,-766,-208,-0.0481300813008112,0.010860279336258,-0.975609756097413,4.065447134148099,-67.47967479674796,50,green
8015.534327,1.341548769,1,78,1,0,-1,0.430621089,-725,-209,0.0137398373983744,0.014197645497849,-0.8943089430894494,6.565260888852635,-77.7642276422765,50,green
8018.167433,1.358276969,1,79,1,1,-1,0.371123519,-741,-208,-0.0329268292682876,0.0080852422051717,0.5284552845528733,3.260152464351848,1.138211382113895,50,red
8020.95899,1.433256066,1,80,1,1,-1,0.512968153,-817,-209,0.0264227642276406,0.009600383362033,0.1219512195122228,5.262618644774832,61.95121951219507,50,red
8026.842097,1.458088982,1,82,1,0,-1,0.40187346,-841,-208,-0.1526016260162629,0.0200916664600238,-1.2195121951219976,5.546360292946371,-8.048780487804912,50,green
8029.65851,1.458237122,1,83,1,0,1,0.443829764,-842,-209,-0.0578048780487818,0.0107507837349408,0.2439024390243994,5.744810025018057,14.39024390243898,50,green
8032.608304,1.458240287,1,84,0,1,-1,0.570012763,-841,-208,0.028130081300816,0.0280748082372498,-2.601626016260199,6.758000182136652,-7.073170731707261,50,red
8035.383229,1.41654864,1,85,1,0,1,0.396410876,-800,-208,0.0334959349593525,0.0083696413083779,0.1626016260162971,4.990572114869259,81.66666666666669,50,green
8038.343881,1.330710455,1,86,0,0,1,0.631886694,-714,-208,0.0879674796747944,0.014216720546689,1.0569105691057463,5.36924012378924,-2.9268292682927,50,green
8041.157843,1.474973586,1,87,1,0,1,0.56586643,-858,-208,0.0298373983739834,0.0138235292049492,-1.0162601626016723,6.845943636869777,-4.918699186991926,50,green
8043.999365,1.558283374,1,88,0,0,1,0.446846415,-942,-209,-0.0156910569105665,0.008146325235691,0.4065040650406966,3.2879118299007994,-61.09756097560969,50,green
8046.949175,1.533290246,1,89,0,0,-1,0.473743813,-917,-209,0.135609756097559,0.0230464503202627,2.1951219512194107,4.917187162613857,-66.99186991869925,50,green
8049.932428,1.558140911,1,90,0,0,-1,0.53275412,-942,-209,-0.0195934959349548,0.0213556669730691,-1.707317073170658,4.959016382248826,3.1707317073171017,50,green
8055.865331,1.491617792,1,92,1,1,-1,0.503296671,-876,-209,-0.08512195121951,0.0088052946774393,0.0406504065040742,3.9729403976817066,62.60162601626017,50,red
8058.740198,1.366638505,1,93,1,0,1,0.467061087,-750,-208,0.058455284552843,0.0261525899583733,1.7073170731707503,6.842080509729978,12.073170731707329,50,green
8061.498388,1.499851319,1,94,0,0,-1,0.470807792,-884,-209,0.0906504065040679,0.0124933718959784,9.254385875509597e-14,6.126489642426113,-78.29268292682927,50,green
8064.323234,1.541623259,1,95,0,0,-1,0.402867754,-925,-208,0.0594308943089376,0.0086324466656478,-0.4878048780487988,4.1848206541888615,62.3577235772358,50,green
8069.964604,1.508228699,1,97,1,1,-1,0.492135081,-892,-209,0.017723577235778,0.0277518154831037,3.1300813008129804,4.135167471879678,-72.80487804878045,50,red
8072.84771,1.458286256,1,98,0,0,-1,0.455547424,-842,-209,0.1206504065040662,0.0128948318002645,-0.7317073170731061,4.213939644675644,-3.699186991869929,50,green
8075.639218,1.516689682,1,99,0,0,-1,0.41636892,-909,-209,-0.0122764227642308,0.0127136380307004,1.056910569105654,5.663989056065719,65.2439024390244,50,green
8078.814057,1.533277626,1,100,1,1,1,0.741911063,-917,-209,0.2298373983739831,0.0270789075686479,2.317073170731726,5.21720689662923,68.33333333333344,50,red
8088.196885,1.374930536,1,101,1,0,1,0.717590879,-759,-209,0.0186991869918693,0.0173736622619592,0.7723577235772264,6.7785086113381725,-10.69105691056918,50,green
8091.113394,1.408305079,1,102,0,1,1,0.62283723,-792,-208,0.0390243902439049,0.0289056119832209,2.032520325203252,5.72059696983776,4.105691056910534,50,red
8093.871536,1.566619638,1,103,0,0,1,0.431529477,-950,-209,-0.039837398373987,0.0070211148641901,0.2439024390243533,4.471544715447108,1.869918699186955,50,green
8096.946357,1.558354375,1,104,0,1,1,0.587355209,-942,-209,-0.0253658536585273,0.0077896192305713,-0.609756097561068,5.202616831146736,-67.39837398373977,50,red
8100.029532,1.541689708,1,105,0,0,-1,0.609287336,-925,-208,0.0184552845528435,0.0283421677330637,2.520325203252051,5.335898153856987,-80.16260162601627,50,green
8108.654082,1.399922173,1,108,0,1,-1,0.618471748,-784,-209,0.1005691056910566,0.0127701814088274,0.8943089430894495,6.596146951345636,-72.1951219512195,50,red
8111.845614,1.524879504,1,109,1,1,-1,0.869794562,-908,-208,-0.0322764227642311,0.0135847795604588,-0.4065040650406505,7.154702509206146,-3.089430894308951,50,red
8114.912083,1.508207548,1,110,1,1,-1,0.625659175,-892,-209,0.056666666666664,0.010880952861347,-0.3252032520325018,4.216683733297357,-2.6422764227642284,50,red
8117.761981,1.499899312,1,111,1,0,-1,0.422019377,-883,-208,-0.0689430894308959,0.010791898215314,-0.1219512195122229,6.196754154103787,-0.0813008130081022,50,green
8120.678409,1.42494877,1,112,1,1,-1,0.500932934,-808,-208,-0.0056097560975657,0.0169090055562351,-1.422764227642323,7.095563097124609,65.60975609756096,50,red
8123.669914,1.41669905,1,113,0,0,1,0.651781361,-800,-208,0.0300813008130097,0.0117287518320843,0.569105691056809,7.321588489378383,8.821138211382122,50,green
8126.411472,1.433280367,1,114,0,1,-1,0.405638141,-816,-208,-0.1205691056910604,0.0132003080541794,-0.5284552845528732,4.039758780099247,-82.84552845528458,50,red
8129.377941,1.533233979,1,115,1,1,-1,0.614912351,-917,-209,-0.0034959349593468,0.0248126032210249,-2.2357723577235773,7.1530856011620685,-3.658536585365853,50,red
8132.344388,1.524954047,1,116,0,0,-1,0.51762467,-917,-208,-0.122845528455286,0.0160432688783732,-1.3414634146341742,5.764336577456503,72.64227642276424,50,green
8135.252614,1.416621444,1,117,0,0,1,0.463686157,-800,-208,0.0045528455284554,0.011733822750415,-0.1626016260162971,5.676520342996022,82.8861788617886,50,green
8138.127402,1.341677287,1,118,1,0,1,0.542695043,-725,-208,0.0366666666666665,0.0269205149503133,-1.7479674796748708,5.126465941604937,-0.0813008130080547,50,green
8144.018731,1.533291172,1,120,1,0,-1,0.839049887,-917,-209,-0.1226829268292666,0.0303947631782219,-2.3577235772357543,5.726082692572577,-10.731707317073129,50,green
8147.035326,1.4165924,1,121,0,1,1,0.56392253,-800,-208,0.0888617886178857,0.0134222693225943,-0.243902439024353,5.041306015586121,17.886178861788622,50,red
8149.901782,1.499971503,1,122,0,1,-1,0.5202337,-883,-208,0.0178048780487815,0.0200138758131563,1.3008130081300997,3.990371119286983,-79.47154471544715,50,red
8155.568093,1.541616224,1,124,1,1,1,0.451839505,-933,-208,0.1343089430894347,0.013008130081301,0.975609756097598,4.785020803109774,15.487804878048836,50,red
8158.476335,1.36654,1,125,1,0,-1,0.447915925,-750,-209,0.0017073170731737,0.0233595218604889,1.3821138211382022,6.103249379169496,-10.284552845528452,50,green
8161.301198,1.399857331,1,126,1,0,1,0.547284651,-784,-209,0.014878048780488,0.0084247415828805,-0.3252032520325019,3.648133357103113,4.87804878048775,50,green
8164.067636,1.424986424,1,127,1,0,-1,0.448906969,-808,-208,-0.0859349593495896,0.0104109492538599,0.2439024390243995,4.69331785280358,-79.79674796747965,50,green
8166.975773,1.39163623,1,128,0,0,-1,0.560354196,-775,-209,-0.030325203252036,0.0104439114260327,-0.4065040650406503,5.469557135464794,66.58536585365856,50,green
8169.717303,1.349991323,1,129,1,1,1,0.429591867,-733,-208,-0.0463414634146321,0.0093116941296568,-0.487804878048799,4.731888913342635,79.55284552845521,50,red
8175.517085,1.441507712,1,131,0,1,1,0.565158086,-825,-208,-0.0195121951219502,0.0072417076232988,0.4065040650406504,3.749986229512055,-58.69918699186996,50,red
8181.008455,1.358239355,1,133,1,0,1,0.434617381,-742,-208,0.0257723577235704,0.0265551405716352,-1.626016260162602,5.250987839417214,67.96747967479666,50,green
8183.933201,1.574871619,1,134,1,1,1,0.648472201,-959,-209,-0.0949593495934948,0.0128866276754959,-1.4227642276423225,5.4544302821853465,-3.943089430894236,50,red
8186.833128,1.42490449,1,135,0,1,1,0.40914313,-808,-208,-0.0131707317073142,0.0138703094713296,0.2439024390243994,4.764949028322769,4.959349593495953,50,red
8189.582833,1.35838797,1,136,1,0,1,0.404688255,-742,-208,0.0453658536585345,0.009434398003498,0.4065040650406503,5.331560780199759,11.219512195122006,50,green
8192.341078,1.499959876,1,137,0,0,1,0.480597112,-883,-209,-0.0538211382113841,0.0059809997260972,0.0813008130080561,3.0787148339449346,-63.86178861788623,50,green
8195.140914,1.524915677,1,138,1,0,-1,0.382133145,-909,-209,-0.0466666666666703,0.0120500860576573,-0.5691056910568553,5.303904530178708,-8.333333333333385,50,green
8198.015796,1.399933874,1,139,1,0,1,0.430197219,-783,-208,-0.0582113821138193,0.0109963670023176,-0.1626016260162046,5.229228855572859,11.260162601626046,50,green
8200.773942,1.416658769,1,140,1,0,-1,0.440114694,-800,-208,-0.0316260162601616,0.0144230483652269,0.975609756097598,5.545764390684009,-73.86178861788615,50,green
8203.65707,1.475013699,1,141,0,0,-1,0.545678531,-867,-209,-0.045528455284553,0.0187048418455538,-1.707317073170704,5.588506945067703,-6.1788617886179065,50,green
8206.4569,1.491642813,1,142,1,0,-1,0.403610368,-875,-209,0.0440650406504064,0.0113046142054153,-0.8536585365854211,4.787092390249036,66.38211382113825,50,green
8209.323414,1.458293853,1,143,1,0,1,0.458475474,-842,-209,0.0704065040650382,0.0109686819448659,-0.7723577235772267,4.294345576014451,10.162601626016212,50,green
8212.131588,1.458319925,1,144,1,0,-1,0.434636445,-842,-209,0.0194308943089469,0.0122405657358639,0.5691056910569474,2.8181024410464537,-74.10569105691054,50,green
8214.898108,1.391695381,1,145,1,1,-1,0.392959838,-775,-208,-0.0376422764227674,0.0164392575956692,-1.138211382113895,4.805696489799134,67.31707317073177,50,red
8217.706368,1.391612488,1,146,1,1,1,0.50190603,-775,-208,0.0427642276422762,0.0081988957629126,-0.7723577235771804,4.729793147868944,14.349593495934895,50,red
8220.472893,1.399877337,1,147,1,0,-1,0.454518461,-783,-208,-0.0117886178861776,0.0075753862148267,0.0,4.685212856658179,-76.38211382113819,50,green
8223.222727,1.566558144,1,148,0,0,-1,0.431817146,-950,-208,-0.012195121951221,0.0216449577785932,-1.2601626016260716,3.448822268733352,59.10569105691056,50,green
8226.089277,1.37490811,1,149,1,0,1,0.378616219,-758,-208,-0.0206504065040691,0.0187838310472298,1.341463414634128,5.972152088522458,9.837398373983754,50,green
8228.839004,1.524901106,1,150,0,0,-1,0.448520367,-909,-209,-0.058211382113822,0.0139733370267605,0.040650406504028,6.370322077494385,-78.82113821138209,50,green
8245.046455,1.416588927,1,151,1,0,-1,0.706508033,-800,-208,0.0886178861788647,0.0250409143687916,-1.66666666666663,7.071067811865537,53.8211382113821,50,green
8250.787769,1.52502468,1,153,0,0,-1,0.493571018,-908,-208,0.0604878048780431,0.0226766608473891,1.5853658536585276,4.131169436069087,-57.96747967479676,50,green
8253.970917,1.42507662,1,154,0,1,-1,0.743888765,-808,-208,-0.0006504065040667,0.0176375925744513,1.3414634146341742,4.052827180687844,-6.4634146341463765,50,red
8256.837423,1.533377149,1,155,0,0,-1,0.524758544,-917,-208,-0.1649593495934949,0.0206106781275768,-1.95121951219515,4.7269973485125085,46.26016260162604,50,green
8259.829028,1.466516753,1,156,1,1,1,0.543943426,-858,-208,-0.034634146341465,0.0187136741335569,0.7723577235772265,7.399713985679897,77.11382113821138,50,red
8265.687018,1.3416246,1,158,0,1,-1,0.615738538,-725,-208,0.0382926829268346,0.0122194878535364,0.487804878048799,6.514980677654995,-10.365853658536574,50,red
8268.695095,1.524961797,1,159,0,1,1,0.749401679,-909,-209,-0.0461788617886161,0.0236642632691387,-2.0731707317072803,5.518882194626861,71.30081300813008,50,red
8271.678333,1.491626337,1,160,0,1,1,0.550351223,-875,-208,-0.0973983739837373,0.0091650215746611,-0.0406504065041204,5.391047040682798,-61.30081300813006,50,red
8274.619769,1.516633934,1,161,1,0,-1,0.519719442,-908,-208,-0.0013008130081322,0.0151865044054006,0.8943089430894494,5.821388012989544,-69.75609756097562,50,green
8280.286225,1.416524352,1,163,1,0,1,0.460217416,-800,-209,-0.0004065040650403,0.01285735793686,-0.4471544715447708,5.257906554310721,70.44715447154476,50,green
8283.344299,1.50835276,1,164,0,0,1,0.723385284,-891,-208,0.0065853658536555,0.0136962313764155,-0.040650406504028,4.931616445891087,0.6097560975609766,50,green
8286.277594,1.558237004,1,165,1,0,1,0.503082178,-941,-208,-0.1176422764227663,0.0114740768036301,-1.2195121951220438,3.3942480886421027,-65.36585365853665,50,green
8292.327119,1.508294106,1,167,0,0,-1,0.609958712,-900,-208,-0.0113008130081291,0.0226798669148616,-2.1138211382113545,5.46018342311717,71.54471544715446,50,green
8295.20197,1.491608544,1,168,0,1,1,0.447623714,-875,-209,0.0514634146341433,0.0066617074554864,-0.0813008130081024,4.416512798549708,73.17073170731707,50,red
8299.435166,1.499896761,1,169,1,0,1,1.822971803,-883,-209,-0.0266666666666659,0.0165402702723822,-1.66666666666663,5.773502691896223,-63.13008130081295,50,green
8302.509866,1.541730899,1,170,1,1,-1,0.653582721,-925,-208,-0.037154471544718,0.0196613540047012,0.691056910569078,6.757266587050426,-17.92682926829267,50,red
8305.401472,1.391551006,1,171,1,1,1,0.431454986,-775,-209,-0.0345528455284558,0.0256632555142132,-1.260162601626072,7.230060776739291,63.33333333333331,50,red
8308.276267,1.566640819,1,172,0,1,1,0.562609196,-959,-209,-0.0013821138211382,0.0107187652930315,-0.2439024390244919,4.0751905804395285,4.065040650406504,50,red
8311.234396,1.424904798,1,173,1,0,1,0.465679638,-809,-209,0.1269918699186931,0.0086759815102144,-0.3252032520325942,4.630222272421005,2.15447154471543,50,green
8316.842435,1.475029804,1,175,1,1,-1,0.456012813,-858,-208,0.0665853658536587,0.0221168099367135,1.6666666666666758,4.371005726021206,-16.38211382113825,50,red
8319.708995,1.416600687,1,176,1,0,1,0.471494998,-800,-208,-0.0060975609756063,0.0160959184511448,-1.0162601626017185,3.6788056412191055,71.0975609756097,50,green
8322.433822,1.533236534,1,177,1,0,1,0.391115983,-917,-209,0.1445528455284548,0.0124711313146313,0.975609756097598,5.334039711301874,-53.25203252032521,50,green
8325.358617,1.408307969,1,178,1,1,-1,0.476771351,-791,-208,0.0843089430894336,0.0110065808135098,-0.5284552845529195,4.529921964759466,-10.325203252032525,50,red
8328.075163,1.35831046,1,179,1,0,1,0.389870658,-742,-209,0.0819512195121958,0.0086813128429012,-0.3658536585366685,3.002081371973574,70.85365853658539,50,green
8330.883311,1.525037218,1,180,0,0,1,0.530948178,-908,-208,-0.1104065040650361,0.0087789821051661,-0.93495934959357,3.948324410272599,-57.92682926829264,50,green
8333.683144,1.366634522,1,181,1,0,-1,0.355743254,-750,-209,0.0085365853658548,0.0223569844667183,1.951219512195057,4.75557637336115,-72.11382113821142,50,green
8336.399706,1.53326397,1,182,1,0,-1,0.435345988,-917,-209,-0.0373983739837441,0.0199304760273748,-1.7073170731707965,5.41612323575513,3.94308943089428,50,green
8339.35788,1.46663569,1,183,0,1,-1,0.503640487,-850,-208,-0.0006504065040701,0.0173088648052396,-1.0975609756097284,3.710560555201322,62.96747967479679,50,red
8342.182736,1.433243169,1,184,0,0,1,0.43777136,-816,-208,-0.0540650406504051,0.0127354551171177,0.1219512195121767,5.025547792041052,-0.4065040650406467,50,green
8347.799038,1.458230745,1,186,0,1,-1,0.478635912,-841,-208,-0.4733333333333356,0.009640919028656,-0.487804878048799,7.635354069511513,5.447154471544658,50,red
8353.748735,1.5332443,1,188,1,0,-1,0.464580718,-917,-209,-0.099918699186993,0.0133729334601313,-0.6910569105691243,4.611985236970212,70.7723577235772,50,green
8356.606904,1.474878386,1,189,1,1,1,0.404534862,-859,-209,0.1275609756097547,0.0110557149042661,0.8130081300812546,5.473785163256187,70.77235772357729,50,red
8359.46507,1.341658355,1,190,1,1,1,0.468564302,-725,-208,0.0383739837398407,0.0105308877498926,-4.332577657073782e-17,6.082094205016417,-0.4471544715447718,50,red
8365.331445,1.49163052,1,192,0,0,1,0.45048124,-875,-208,0.1585365853658507,0.0085570795418113,0.5691056910569012,3.3457037956992783,2.764227642276405,50,green
8368.114611,1.474924249,1,193,0,1,1,0.375164991,-859,-209,0.1534146341463443,0.0130015227121657,0.4878048780488453,5.741069445606254,7.520325203252032,50,red
8370.922747,1.366687012,1,194,0,0,1,0.416910873,-750,-208,0.1301626016260139,0.0222268155739239,2.1138211382113545,3.374228612918337,-3.8211382113821535,50,green
8373.664245,1.566620936,1,195,1,0,1,0.460482768,-950,-209,0.0277235772357752,0.009585224489879,-0.3252032520325018,5.234598161522713,-70.48780487804876,50,green
8379.388916,1.40831131,1,197,1,0,-1,0.506201184,-792,-209,-0.0568292682926834,0.0319717966797837,-2.926829268292609,5.864094130687184,57.27642276422763,50,green
8385.247032,1.499906465,1,199,0,1,1,0.596687993,-883,-208,-0.0911382113821168,0.018573988793113,-1.3414634146340818,4.982619006843756,4.674796747967479,50,red
8401.729335,1.416707291,1,202,0,1,-1,0.436977434,-800,-208,0.009268292682931,0.0084841595760612,-0.4471544715446322,4.340275712207685,-4.512195121951231,50,red
8404.562589,1.399882462,1,203,0,1,-1,0.501406844,-792,-209,0.0986178861788576,0.0150742319023762,-0.7317073170731522,4.181660509766826,1.6666666666666292,50,red
8413.570475,1.558233568,1,206,0,1,-1,0.652219778,-942,-208,-0.007479674796754,0.0124843745288481,-0.3252032520325018,5.462603985542016,-2.479674796747976,50,red
8416.470207,1.383283095,1,207,0,0,-1,0.42454712,-767,-209,-0.1229268292682955,0.0094056291798241,0.3252032520325943,6.227610435291791,0.5284552845528737,50,green
8422.553241,1.40820379,1,209,0,0,1,0.604645693,-791,-208,-0.0020325203251998,0.0099890878396143,-0.1219512195122228,4.733983751007429,10.44715447154464,50,green
8425.31975,1.433286935,1,210,1,0,-1,0.43929074,-817,-209,-0.0339024390243905,0.0127929354554606,-0.2032520325202789,6.270712259600888,-72.3983739837398,50,green
8428.094667,1.44993828,1,211,0,1,-1,0.424296526,-833,-208,0.0604878048780461,0.0101733276729677,-0.8130081300812546,6.708425629012219,-5.691056910569063,50,red
8430.952879,1.474853007,1,212,1,0,-1,0.489977416,-858,-208,-0.0586991869918659,0.0108352970352222,0.4065040650406966,4.908105234459552,10.650406504065018,50,green
8433.911051,1.34154127,1,213,0,1,-1,0.565552522,-725,-209,0.0321138211382137,0.0122664580244175,0.6504065040650038,5.629457568689946,-1.9512195121951037,50,red
8436.527407,1.583335737,1,214,0,0,-1,0.356622371,-967,-209,-0.1017886178861764,0.038427859383003,-1.951219512195011,5.152188461058407,-1.2195121951219985,50,green
8439.40234,1.549894883,1,215,1,0,-1,0.371558957,-933,-208,0.010243902439017,0.0108590620208545,-1.0162601626015335,4.783639246619656,13.00813008130086,50,green
8442.302083,1.516633582,1,216,0,0,-1,0.433178749,-901,-209,0.079268292682924,0.014622398175032,0.4065040650406503,7.978464304393898,68.98373983739835,50,green
8445.135263,1.458365612,1,217,1,0,1,0.399065327,-841,-208,0.0430894308943076,0.0085863820536799,0.4065040650406966,3.507260912215001,65.60975609756105,50,green
8447.835128,1.35833028,1,218,1,1,1,0.320078541,-742,-209,-0.0006504065040713,0.0226854036005373,1.3008130081301,5.013696621312726,-61.46341463414645,50,red
8450.618289,1.408374929,1,219,1,1,-1,0.504532142,-792,-208,0.0559349593495924,0.01176083072189,0.7317073170732447,3.999471179267745,-68.04878048780482,50,red
8453.426555,1.366534212,1,220,0,1,-1,0.480533409,-750,-208,0.0357723577235686,0.0224537479678903,1.3414634146340814,4.086124186383393,-0.0406504065040733,50,red
8456.143072,1.383304709,1,221,0,1,-1,0.433357202,-766,-208,0.1282113821138255,0.0089593348383451,0.3658536585366223,4.707029211749335,-4.43089430894308,50,red
8458.909547,1.499970914,1,222,1,0,-1,0.469345839,-892,-209,0.0325203252032489,0.010713830885914,0.853658536585375,4.4951336412290175,62.76422764227637,50,green
8461.659354,1.516613399,1,223,1,1,1,0.329004319,-908,-208,0.0755284552845567,0.0107002495333218,0.28455284552852,5.421307443186334,75.52845528455293,50,red
8467.325855,1.474852541,1,225,0,1,-1,0.384698755,-858,-208,0.0998373983739824,0.0202955881806069,2.357723577235661,5.866348034539066,-13.25203252032523,50,red
8472.842073,1.53322628,1,227,0,0,-1,0.340382932,-916,-208,0.1757723577235776,0.0182052109172328,1.2195121951219514,5.546360292946339,-80.77235772357723,50,green
8475.683574,1.458343503,1,228,0,1,-1,0.388479545,-842,-209,0.0105691056910615,0.0067680180124447,0.4471544715446785,4.7715335641042005,70.52845528455289,50,red
8478.491745,1.49169727,1,229,1,0,1,0.430609585,-875,-208,0.0735772357723592,0.0126395966103381,0.3658536585365761,4.575654248863538,79.95934959349582,50,green
8481.416596,1.441665826,1,230,0,0,1,0.515690339,-825,-209,-0.0290243902439015,0.0082982605186667,0.8130081300812546,4.480036283055519,-74.34959349593491,50,green
8484.233124,1.449924406,1,231,0,1,-1,0.448523898,-834,-209,0.0876422764227658,0.0118034669585974,0.1219512195121766,7.742381900523391,-8.33333333333333,50,red
8487.23293,1.358293687,1,232,1,1,1,0.63269911,-742,-209,0.0170731707317087,0.0075070196510501,-0.4065040650406503,4.444485755641395,19.715447154471537,50,red
8490.057869,1.383235074,1,233,0,1,-1,0.54976939,-766,-208,-0.0249593495934951,0.0104382138833852,-0.894308943089357,5.982104760698607,-17.520325203251982,50,red
8492.857611,1.55833775,1,234,1,1,1,0.498810551,-942,-209,-0.0207317073170728,0.0096306295251779,-0.4878048780487992,6.314304988275645,61.951219512195166,50,red
8498.690654,1.550021832,1,236,1,0,1,0.457103633,-933,-208,-0.1408130081300834,0.0119575780883576,-0.325203252032594,8.199903431541024,15.16260162601633,50,green
8501.57378,1.491688092,1,237,1,1,1,0.41913865,-875,-208,-0.0873983739837428,0.0221905054908945,-1.6666666666666758,5.992316670419689,-68.94308943089436,50,red
8504.690354,1.483280583,1,238,0,1,-1,0.707833475,-867,-209,0.0378048780487807,0.0081690124794016,0.0406504065041204,3.72655825572848,-9.674796747967498,50,red
8510.415086,1.333270274,1,240,0,1,1,0.526589314,-725,-209,0.0437398373983704,0.0144683471392016,-0.6097560975609292,7.858471147443467,6.300813008130081,50,red
6185.461686,1.574843539,1,1,1,1,1,0.934745802,-958,-208,0.0821138211382072,0.0159029876707191,1.0162601626016723,5.112263389353769,8.130081300813007,75,red
6188.819757,1.358289633,1,2,1,1,1,0.854856139,-742,-209,0.0191869918699181,0.011511460175888,1.1788617886177846,6.271239276642655,3.821138211382152,75,red
6191.886314,1.541626748,1,3,0,1,1,0.778071624,-925,-208,0.0359349593495882,0.0114099543368121,-0.1626016260162971,5.58022153362525,0.7317073170731541,75,red
6194.877832,1.558289398,1,4,1,0,1,0.52882851,-941,-208,-0.0481300813008149,0.0104128537538765,-0.2439024390244457,4.222166560194811,-63.57723577235777,75,green
6201.219064,1.516614785,1,6,1,1,-1,0.773326178,-900,-209,0.0673983739837399,0.0092889514447943,-0.0406504065040743,4.763908532835028,-2.195121951219549,75,red
6204.310545,1.491689968,1,7,0,1,-1,0.654200743,-883,-208,-0.0734959349593497,0.0179264144634275,-1.6260162601626014,4.2529728941954,-5.365853658536558,75,red
6207.243719,1.408303177,1,8,0,0,-1,0.521689396,-792,-209,0.0673170731707332,0.0156760954830858,-0.8943089430894494,4.230768075205897,1.8699186991870007,75,green
6213.435047,1.583297208,1,10,0,0,-1,0.922858583,-967,-209,-0.1546341463414683,0.0145185133475685,-1.260162601625979,5.344253147819426,2.0325203252032518,75,green
6216.384971,1.57490653,1,11,0,1,-1,0.451616473,-958,-209,0.09723577235772,0.0195213393207449,1.178861788617877,5.669821006803179,-2.3170731707317263,75,red
6219.66801,1.433352925,1,12,1,1,-1,0.790400456,-817,-208,-0.0530081300812976,0.0160757839065696,-1.2195121951219512,5.43531050668244,3.37398373983738,75,red
6222.792869,1.458267379,1,13,0,0,-1,0.776775931,-842,-209,0.0985365853658499,0.010900980847419,0.691056910569078,4.323873504252356,54.83739837398373,75,green
6228.909197,1.424912925,1,15,0,1,1,0.688941409,-808,-208,-0.0043902439024411,0.0188000109694883,1.5853658536584812,6.191952329163889,-60.3252032520325,75,red
6231.734009,1.458250214,1,16,0,0,-1,0.480748955,-841,-208,-0.2066666666666639,0.0365092251952463,-3.0487804878049243,3.660794244689185,-77.35772357723582,75,green
6234.7339,1.483303982,1,17,1,0,-1,0.621015525,-867,-208,-0.2579674796747901,0.0166024939454448,-6.498866485610672e-17,4.771187236136805,57.39837398373985,75,green
6240.700175,1.441578594,1,19,1,1,-1,0.731950941,-825,-208,-0.2270731707317081,0.0244503324859888,-2.032520325203252,5.000165242824376,-6.097560975609745,75,red
6243.458336,1.358356507,1,20,1,0,1,0.392835149,-742,-208,-0.2532520325203283,0.0377325122583593,-3.170731707317008,4.949677360057834,7.317073170731685,75,green
6246.383239,1.458238185,1,21,0,0,-1,0.644967558,-842,-209,0.0037398373983752,0.0155614088682448,1.0569105691056542,2.320992264003009,-67.6829268292683,75,green
6249.283155,1.516501612,1,22,1,0,-1,0.525944211,-900,-209,-0.02195121951219,0.0109753086378447,0.0406504065040279,4.834493901566851,64.95934959349597,75,green
6252.224569,1.458274933,1,23,1,1,1,0.503812743,-842,-209,-0.0174796747967494,0.0088807881654778,0.365853658536576,5.000165242824734,73.57723577235774,75,red
6255.34111,1.366537211,1,24,0,1,1,0.740431401,-751,-209,0.0269105691056887,0.0073161697725959,-0.2845528455284275,4.275448898354028,-8.41463414634148,75,red
6258.307624,1.491554256,1,25,1,1,1,0.683803123,-875,-209,-0.0073170731707368,0.0155039605898574,1.4227642276422765,4.591157041787107,-58.00813008130079,75,red
6261.25746,1.441500039,1,26,0,0,-1,0.537132591,-825,-208,-0.0395121951219586,0.0118487393185277,0.4878048780487988,5.549041061215195,-70.89430894308946,75,green
6264.215517,1.441580979,1,27,0,0,-1,0.595368118,-834,-209,-0.0334146341463418,0.0228094788339076,-1.8699186991870471,5.857327215309817,59.71544715447158,75,green
6269.831984,1.416528577,1,29,1,1,1,0.546002992,-800,-209,0.0286991869918714,0.0122421856082637,-0.8130081300813007,5.102233306904895,-58.983739837398346,75,red
6272.556764,1.433292215,1,30,1,0,-1,0.391950213,-817,-209,-0.0369918699186971,0.0310826522528049,-2.032520325203252,3.9562683123889766,-71.86991869918704,75,green
6275.598322,1.399847952,1,31,0,0,-1,0.688869801,-791,-208,-0.1272357723577248,0.0109747063765532,-0.7723577235772269,4.6866234280756345,-3.7398373983740023,75,green
6290.122463,1.541601409,1,36,0,1,1,0.570397448,-925,-209,0.0266666666666613,0.018896449789857,-1.5853658536585276,5.192124789092044,2.276422764227652,75,red
6293.088938,1.366688787,1,37,1,1,1,0.504785722,-750,-208,-0.0117886178861829,0.0329768765491667,2.6829268292682094,4.551393496675959,9.51219512195121,75,red
6295.888781,1.44167351,1,38,0,0,1,0.512522188,-825,-208,0.061869918699185,0.0120242775546208,0.3658536585365762,4.750013480539703,-67.6016260162602,75,green
6298.6053,1.474913809,1,39,1,0,-1,0.358780015,-859,-209,-0.0468292682926859,0.0123903079186617,-0.9349593495934776,3.8263241059348094,-77.0731707317073,75,green
6301.605089,1.525036206,1,40,1,0,-1,0.60942286,-908,-208,-0.018048780487803,0.037655707098443,-2.195121951219457,6.90075821990018,9.552845528455284,75,green
6304.480061,1.466486239,1,41,0,0,-1,0.431700619,-858,-208,0.0030081300813023,0.0135106198880266,-0.8130081300813009,4.672498551382664,3.048780487804878,75,green
6307.404802,1.366690977,1,42,1,0,-1,0.542775017,-750,-208,-0.0543902439024416,0.020357372915757,-0.7723577235771802,6.07203328450029,-4.390243902439051,75,green
6313.046192,1.433263945,1,44,1,1,1,0.450896976,-817,-208,-0.0499186991869973,0.0149906882768015,-1.3821138211382482,4.243637658001846,76.70731707317076,75,red
6315.870934,1.358321405,1,45,0,1,1,0.474376895,-742,-209,0.106991869918697,0.0128280214135386,1.4634146341463508,5.810875724635423,-65.44715447154476,75,red
6318.529184,1.524886602,1,46,0,0,-1,0.380831111,-908,-208,-0.179186991869923,0.0190358522902759,-0.7723577235772731,7.233031361719738,-76.13821138211385,75,green
6324.42891,1.47485688,1,48,0,1,1,0.66859379,-859,-209,-0.1205691056910583,0.0287556734696381,-2.2357723577236235,6.961077970924153,23.41463414634143,75,red
6327.420408,1.558252407,1,49,1,1,-1,0.595113998,-941,-208,0.1139837398374007,0.0202890735793675,1.382113821138248,5.045892894043192,-65.08130081300808,75,red
6330.395243,1.541562959,1,50,1,1,-1,0.495486949,-925,-208,-0.0734146341463394,0.0136657936586079,0.5691056910569935,6.632123476069777,-8.414634146341482,75,red
6338.961338,1.533306536,1,51,0,0,-1,0.980732104,-925,-208,0.0570731707317123,0.013664826271522,-0.5691056910569473,5.041961539419513,1.5447154471544526,75,green
6341.911193,1.474994532,1,52,1,0,-1,0.492712988,-858,-208,-0.1847154471544748,0.0422664153258663,-2.845528455284599,5.0504756066656,56.13821138211383,75,green
6344.861008,1.574943696,1,53,0,0,1,0.553625481,-967,-208,-0.0573983739837409,0.0293643410463143,-1.9105691056910292,7.321137082831217,8.78048780487805,75,green
6347.944297,1.349854852,1,54,1,1,-1,0.590036953,-742,-208,-0.0932520325203242,0.0119215937212158,1.016260162601626,4.2111937679578535,-14.756097560975588,75,red
6350.610782,1.333185914,1,55,0,1,1,0.396776182,-716,-208,0.0355284552845514,0.0102509976718639,-0.2439024390243534,5.613584177546048,8.943089430894306,75,red
6356.160416,1.341656293,1,57,0,1,1,0.407638081,-725,-208,0.1895934959349589,0.0306837066522755,3.0487804878048785,6.816431993738044,70.73170731707317,75,red
6358.901877,1.383294846,1,58,0,1,1,0.478358062,-767,-208,0.0590243902438995,0.0140671552524788,-0.2439024390243531,7.413100682962447,-61.91056910569104,75,red
6361.843502,1.383172191,1,59,1,0,-1,0.639503504,-767,-209,0.0504065040650386,0.0215675596024685,-1.3821138211382489,4.211586145668036,-14.227642276422769,75,green
6367.326499,1.524925863,1,61,1,0,-1,0.427263279,-908,-208,-0.0452032520325252,0.014290916212941,-1.341463414634128,7.853843691533905,-66.30081300813005,75,green
6373.259395,1.533349587,1,63,0,1,1,0.588297991,-917,-209,0.0256910569105636,0.0107193819342109,-0.7317073170731522,4.509081178491771,83.29268292682927,75,red
6376.301016,1.416522225,1,64,0,1,1,0.588251527,-800,-209,-0.0331707317073167,0.0185661581246651,1.2601626016260257,5.794358622270336,-80.6910569105691,75,red
6381.942264,1.500050283,1,66,1,0,1,0.145283917,-883,-208,0.1342276422764249,0.0179724453278771,0.975609756097598,6.491349358809663,21.951219512195124,75,green
6385.025412,1.441627465,1,67,1,1,-1,0.665963185,-825,-209,0.0520325203251998,0.0076793771642476,-0.3252032520325018,4.248696790391585,-23.57723577235772,75,red
6388.233668,1.466528315,1,68,0,1,1,0.849657729,-850,-209,-0.2299186991869909,0.0375845489676962,-3.292682926829232,5.720308101861598,65.12195121951221,75,red
6394.516557,1.4333548,1,70,1,1,1,0.614632856,-817,-209,0.0540650406504008,0.0176060847917258,1.2601626016260257,4.535026103803086,5.28455284552841,75,red
6397.508167,1.34991379,1,71,0,1,1,0.640451424,-733,-209,0.0026016260162634,0.0223735346901427,-1.5447154471544533,7.4023932618469725,3.780487804878077,75,red
6400.349658,1.449920033,1,72,0,1,1,0.571060996,-833,-208,0.0339024390243899,0.0244530357035545,1.8292682926828807,3.822003015786617,-50.56910569105685,75,red
6403.299404,1.508355802,1,73,0,0,-1,0.582608807,-892,-208,0.110731707317073,0.0098249602211518,-0.3252032520325942,5.499686024483619,-69.18699186991874,75,green
6406.140905,1.475026357,1,74,1,0,-1,0.413912784,-858,-208,-0.13073170731707,0.0246444744776941,-2.2764227642276977,5.955527340426995,-5.325203252032529,75,green
6409.007474,1.408296074,1,75,1,0,-1,0.470102812,-792,-208,-0.073902439024387,0.0088718522703765,-0.4471544715447247,4.568425722629778,2.317073170731728,75,green
6412.007241,1.566700013,1,76,0,0,-1,0.670517041,-950,-209,-0.0782926829268319,0.0232983222220419,-1.9918699186991315,5.103528618758055,1.585365853658527,75,green
6415.015471,1.566580373,1,77,0,0,-1,0.527711179,-950,-209,-0.1236585365853639,0.0324103832645315,-2.560975609756125,5.115171664959891,-3.6585365853658542,75,green
6418.006948,1.391639686,1,78,1,0,-1,0.503442543,-775,-208,-0.1113821138211406,0.0225585950549527,-1.4227642276423689,4.317371722715969,64.34959349593498,75,green
6420.823424,1.433373847,1,79,0,1,1,0.503735708,-826,-209,-0.0979674796747917,0.0100201396773671,-0.4065040650406503,4.4138929441109935,11.99186991869914,75,red
6423.856583,1.466625549,1,80,0,0,-1,0.685966426,-851,-209,-0.0024390243902441,0.0137381535505461,-0.5284552845528732,7.592599309888405,-23.37398373983736,75,green
6426.898141,1.424953544,1,81,1,0,1,0.659423693,-808,-208,-0.1585365853658477,0.0200323619463699,-1.3414634146340354,3.775895453571733,69.06504065040649,75,green
6429.539608,1.483329194,1,82,1,1,1,0.298961272,-867,-209,-0.0517886178861781,0.0121184582165348,0.8130081300813007,3.3761869581863517,-0.0813008130081019,75,red
6432.631084,1.491638694,1,83,0,1,1,0.687425721,-876,-209,-0.041138211382117,0.0060370986067438,-0.2032520325203714,3.950834736526197,-1.3414634146341755,75,red
6435.572599,1.541611712,1,84,0,1,1,0.532900376,-925,-208,0.0378861788617911,0.0064345882723282,0.1219512195122228,3.742929086151829,4.268292682926875,75,red
6438.572429,1.375030419,1,85,1,1,1,0.541034132,-758,-208,0.1504878048780523,0.0172350053518551,1.910569105690983,3.8705506076968095,1.951219512195056,75,red
6441.538966,1.458230821,1,86,1,1,1,0.675892289,-842,-209,0.0673170731707326,0.0187200308006159,1.8292682926829729,4.352441890837336,-59.22764227642279,75,red
6444.2805,1.39164723,1,87,1,0,-1,0.369305644,-775,-208,-0.0864227642276392,0.0101244813502818,-0.2439024390243532,5.826778845008598,-80.28455284552842,75,green
6447.113653,1.458322663,1,88,0,0,-1,0.527503225,-842,-208,0.0022764227642343,0.0173846918316081,0.2439024390243533,7.431356837467166,2.4390243902439024,75,green
6449.913458,1.475001185,1,89,0,1,-1,0.420907552,-858,-208,0.0492682926829218,0.0123422024908047,0.7317073170732448,4.083292358974972,3.94308943089428,75,red
6452.904964,1.499938061,1,90,0,0,-1,0.59485576,-884,-209,-0.0669918699186974,0.0069530021961711,-0.93495934959357,4.553934248456976,59.34959349593496,75,green
6455.7298,1.558285054,1,91,1,1,1,0.410151073,-950,-208,0.1302439024390307,0.0176967052197915,1.2195121951219512,7.895183862161351,72.92682926829272,75,red
6458.62139,1.549864144,1,92,1,1,1,0.423577028,-942,-209,0.1252845528455337,0.0179724453278765,1.7073170731707044,8.068875301333149,2.886178861788581,75,red
6461.537897,1.441533826,1,93,1,1,1,0.444920197,-833,-208,0.1230081300813014,0.0161663963090497,-0.7317073170731523,5.007430528694569,-0.4471544715446776,75,red
6464.779303,1.450008922,1,94,1,0,1,0.884769328,-833,-208,-0.0582926829268275,0.0120385614366809,-0.8943089430894494,4.149926713944788,-66.17886178861791,75,green
6467.479168,1.416609499,1,95,1,0,-1,0.33034127,-808,-208,0.0227642276422749,0.0102921820091572,-0.3252032520324553,5.938021261615808,-68.17073170731707,75,green
6470.295651,1.358295837,1,96,0,0,-1,0.481260423,-750,-208,-0.0691056910569097,0.0350842917640854,-1.138211382113849,6.781920653425187,2.5203252032520496,75,green
6472.920597,1.383212695,1,97,1,0,-1,0.345911782,-775,-209,-0.0151219512195095,0.0166565505686442,-1.3008130081301,4.425109970950946,-1.341463414634129,75,green
6478.520236,1.441615663,1,99,0,1,1,0.521493402,-825,-208,-0.0347967479674838,0.0154565653831754,-1.0569105691056542,5.137092087617432,19.55284552845524,75,red
6481.345126,1.51656103,1,100,0,1,-1,0.46304122,-900,-209,0.0147154471544662,0.007403286138427,0.5691056910568552,3.158199121878692,-13.455284552845503,75,red
6494.619359,1.458317382,1,101,0,0,1,3.019680051,-842,-208,0.0319512195121908,0.0088614156705292,-0.2032520325203714,5.548445446867015,-5.894308943089483,75,green
6501.027261,1.57502444,1,103,1,1,-1,0.777240959,-958,-208,-0.171138211382117,0.0282255534800945,-2.357723577235708,4.756618691483035,56.260162601626014,75,red
6504.077195,1.483188444,1,104,0,1,1,0.559000326,-866,-208,-0.0517073170731776,0.0105928438861151,-0.6910569105690779,4.742353848159183,68.29268292682923,75,red
6510.360083,1.424958277,1,106,1,0,1,0.858203127,-809,-209,-0.1211382113821128,0.0282257876577805,-2.032520325203252,6.812552131740999,4.796747967479655,75,green
6518.976262,1.383302927,1,109,1,1,1,0.564869084,-767,-209,0.0094308943089393,0.0077017234684813,0.2439024390243533,4.779146429806111,-58.17073170731703,75,red
6521.826202,1.34154324,1,110,1,0,-1,0.54806684,-725,-209,-0.0174796747967458,0.0101492595345213,0.3252032520325019,5.3498158947517,-10.650406504065058,75,green
6524.992655,1.558228244,1,111,0,1,1,0.907803834,-942,-209,0.0873983739837453,0.0156950582538719,1.8292682926829271,5.771212528104398,6.219512195121918,75,red
6528.017433,1.341606359,1,112,0,0,-1,0.548009988,-726,-209,-0.0001626016260169,0.0157076873830675,0.3252032520325019,6.039835154913153,-22.195121951219463,75,green
6530.717276,1.424964588,1,113,0,1,1,0.444167759,-809,-209,-0.0102439024390224,0.0103644985564116,0.4878048780487991,6.908655880541756,61.58536585365854,75,red
6533.408802,1.441605098,1,114,0,0,1,0.349724855,-825,-209,-0.0430081300813065,0.0127063573440305,-0.7317073170732447,5.485244810872769,5.853658536585355,75,green
6539.091811,1.533388792,1,116,0,1,-1,0.446448248,-917,-208,0.0547154471544679,0.0234346684840821,1.4634146341463046,5.195306433357045,-58.6178861788618,75,red
6542.058326,1.52502199,1,117,0,0,-1,0.515584938,-908,-208,0.0857723577235747,0.0151337483487687,0.8536585365852828,3.2535565534575976,58.49593495934958,75,green
6545.083182,1.449922971,1,118,1,0,1,0.580577018,-834,-209,-0.114146341463414,0.0343045117162863,-2.682926829268348,5.842072997483563,12.967479674796744,75,green
6550.766216,1.508254316,1,120,1,0,-1,0.485266807,-900,-209,-0.0017886178861837,0.0185340891201822,-0.4065040650406503,6.844978059483481,-5.73170731707318,75,green
6553.691006,1.408368747,1,121,0,0,-1,0.497271068,-791,-208,-0.0589430894308901,0.0079823985096802,-0.2439024390244457,5.697441250551767,9.674796747967507,75,green
6559.282355,1.399998891,1,123,0,0,1,0.532339646,-783,-208,-0.0083739837398433,0.0092981973694286,-0.2032520325203714,4.702463200918446,60.36585365853663,75,green
6562.015611,1.449959861,1,124,1,0,1,0.418257999,-833,-208,0.0134959349593476,0.0110646792411842,0.8130081300813009,4.419131099824977,-54.837398373983774,75,green
6564.857054,1.416659725,1,125,1,1,-1,0.476204059,-800,-208,-0.0130081300812971,0.0087427675178992,0.4471544715447247,4.612701773172031,-62.76422764227642,75,red
6567.598562,1.424982984,1,126,0,1,-1,0.411262201,-809,-209,-0.036097560975604,0.028007156578595,-2.154471544715383,5.903973013951001,57.11382113821138,75,red
6570.45928,1.364036117,1,127,0,0,1,0.516623833,-756,-209,-0.0291056910569127,0.020423178495099,-1.8292682926828343,5.137735390116911,11.260162601626035,75,green
6573.198341,1.533169823,1,128,0,0,-1,0.453142399,-917,-209,0.1418699186991875,0.0358918919349387,3.333333333333305,4.952347449185753,-4.430894308943086,75,green
6576.189774,1.433289422,1,129,1,1,1,0.537118939,-817,-209,-0.0065040650406519,0.0164163232962332,-0.9349593495934776,4.3250198628521055,5.813008130081293,75,red
6578.88126,1.375012659,1,130,1,0,-1,0.343008379,-759,-209,0.003495934959348,0.0218449702047578,1.0162601626015797,7.305546476469176,-26.016260162601636,75,green
6581.589438,1.475007157,1,131,0,1,1,0.413585256,-859,-209,0.0406504065040602,0.0217248186199025,1.544715447154453,5.092507966135504,64.51219512195127,75,red
6584.639258,1.533294096,1,132,1,1,1,0.66048629,-917,-208,-0.0870731707317068,0.0094854045632747,0.7317073170731522,3.146141881445397,-56.5853658536586,75,red
6593.730562,1.53316124,1,135,1,0,-1,0.599530504,-917,-209,-0.0551219512195135,0.0234143518501496,-1.9512195121951037,4.521889534547823,-8.658536585365809,75,green
6599.846899,1.408127875,1,137,0,1,1,0.621830679,-792,-209,0.0052032520325212,0.016886709246341,0.975609756097598,3.825028291446411,-58.94308943089426,75,red
6605.838226,1.499854651,1,139,0,1,1,0.556066346,-883,-208,0.0947967479674803,0.0079550259397706,-0.365853658536576,5.403905482238523,69.71544715447162,75,red
6611.829473,1.341627012,1,141,0,1,1,0.698008718,-725,-209,-0.0221951219512235,0.0126704128382293,0.8130081300813009,5.5961895575131,-58.3739837398374,75,red
6614.620954,1.574936416,1,142,0,1,-1,0.522939743,-959,-209,0.0191869918699247,0.0060206531972598,0.0406504065040742,3.261166035793951,-2.2357723577235515,75,red
6617.604127,1.49987695,1,143,0,1,1,0.49039225,-884,-209,0.0195121951219531,0.0109009808474185,0.4065040650406967,4.782257291009019,12.276422764227602,75,red
6621.078902,1.424999403,1,144,0,0,-1,1.054345213,-808,-208,-0.0359349593495923,0.0157043206083247,-0.2032520325202791,6.986195466322183,-73.08943089430898,75,green
6623.978832,1.408147019,1,145,1,0,-1,0.559627469,-792,-208,0.0447154471544699,0.0179816373607439,0.813008130081347,6.818613445938655,2.8455284552846,75,green
6626.803576,1.424988448,1,146,1,0,-1,0.501508442,-809,-209,0.0449593495934979,0.010772281024424,-4.6098626271265046e-14,5.980999726097554,2.682926829268256,75,green
6629.686798,1.391677806,1,147,1,0,-1,0.538292388,-775,-208,-0.0804065040650405,0.0231349031223672,-2.1138211382113545,5.714816836029089,3.983739837398401,75,green
6632.744957,1.449867926,1,148,0,1,-1,0.746113232,-834,-209,0.0512195121951263,0.0031904742878611,-0.2439024390243533,1.7092517107009708,54.8780487804878,75,red
6635.586545,1.524902234,1,149,0,1,1,0.470193623,-908,-209,-0.2470731707317071,0.0258459875105323,-1.9918699186990856,4.8447372082728695,68.53658536585367,75,red
6638.544625,1.441608583,1,150,1,1,1,0.513762331,-826,-209,0.0608130081300859,0.0137909761750739,-0.2439024390243995,5.873104556254122,-4.756097560975628,75,red
6646.235904,1.541609012,1,151,0,1,1,1.062095625,-925,-208,0.1732520325203224,0.015940350838369,1.7479674796747782,5.934959349593501,-65.93495934959353,75,red
6649.23566,1.383296346,1,152,0,0,-1,0.543313602,-775,-208,0.0267479674796712,0.0095679693462924,0.2439024390243532,5.479216405038708,-33.170731707317046,75,green
6652.552208,1.333339168,1,153,1,1,1,1.013131592,-717,-208,0.0080487804878017,0.0268538936014859,1.8292682926829733,7.276990485187778,57.479674796747965,75,red
6658.74347,1.558345211,1,155,0,0,-1,0.54814403,-942,-208,-0.2330894308943093,0.0269291071657365,-1.869918699186955,5.4746907443961526,1.1382113821138065,75,green
6661.676704,1.491626472,1,156,0,1,1,0.459838824,-875,-208,0.0830894308943122,0.0178180520738897,0.8536585365852827,4.744444065192393,70.20325203252038,75,red
6664.951445,1.416636829,1,157,1,1,1,0.864934513,-800,-208,0.0239024390243877,0.0081235746320627,-0.6097560975608832,5.176506464953054,-6.300813008130127,75,red
6667.942998,1.474911636,1,158,1,1,1,0.657915,-859,-209,-0.0488617886178916,0.0083956622071058,-0.0813008130081486,4.081673289775859,-56.78861788617888,75,red
6674.009329,1.45831833,1,160,0,0,-1,0.581387612,-850,-208,-0.0573983739837428,0.0125466938041371,-0.9349593495935236,3.913855252653984,-5.203252032520352,75,green
6677.000885,1.34153254,1,161,1,0,-1,0.606364534,-725,-209,0.0070731707317146,0.0188589849332011,0.8130081300813471,4.247140776133014,57.03252032520324,75,green
6682.583864,1.466608389,1,163,0,1,1,0.457465906,-850,-208,0.0674796747967456,0.0265543938331513,1.9105691056909837,7.376452827455968,5.5691056910569285,75,red
6688.208493,1.458370222,1,165,1,1,1,0.406643173,-841,-208,0.0556910569105724,0.0161986641896237,0.975609756097598,5.54576439068412,-53.37398373983743,75,red
6690.958375,1.366663582,1,166,1,0,-1,0.375413179,-750,-208,-0.0758536585365792,0.0178199067879099,-1.0162601626017644,4.491456038026895,-62.47967479674795,75,green
6693.691606,1.541609148,1,167,1,0,-1,0.446416445,-925,-208,-0.2021951219512193,0.0140417590101879,-0.6910569105691242,5.060281729949701,0.3252032520325032,75,green
6696.591401,1.474956227,1,168,1,0,-1,0.441665797,-858,-208,-0.0604878048780523,0.0315201899462572,-2.0731707317072803,6.664435478310616,2.479674796747977,75,green
6699.502034,1.405782211,1,169,0,0,-1,0.527769586,-798,-208,-0.013658536585366,0.0102658173123024,-0.8943089430894494,4.067478943528466,58.983739837398375,75,green
6702.307753,1.483269647,1,170,1,1,1,0.479808482,-867,-209,0.0639024390243918,0.0105822307497496,0.4878048780487065,6.073665917274644,22.92682926829266,75,red
6708.365746,1.383298365,1,172,0,0,-1,0.736036254,-766,-208,0.063658536585374,0.0169457108282181,1.3008130081300997,4.347883563291459,57.479674796748,75,green
6711.240647,1.491599563,1,173,1,1,1,0.574805808,-875,-208,0.1436585365853666,0.0117743114760202,0.7723577235772267,4.814971583686153,5.325203252032558,75,red
6714.107087,1.358257481,1,174,1,0,-1,0.455981195,-750,-209,-0.0130894308943091,0.0155546112665804,1.2601626016260254,6.825153619134225,-73.86178861788626,75,green
6716.931998,1.466520321,1,175,1,0,-1,0.545682865,-850,-208,-0.0915447154471557,0.0167404671815573,-1.1788617886178767,5.247839953612268,3.821138211382107,75,green
6719.831769,1.358255686,1,176,1,0,-1,0.517392719,-750,-208,-0.2352845528455299,0.0334265996418952,-2.4796747967480237,4.857340870049004,59.67479674796751,75,green
6722.681721,1.416469727,1,177,0,1,1,0.573862632,-800,-209,0.05235772357724,0.0096491427313413,0.3252032520324556,4.58611537436432,10.650406504065014,75,red
6725.431553,1.449847144,1,178,0,1,-1,0.418273608,-834,-209,0.0473983739837409,0.0076500565828926,0.0406504065039818,4.619503323852699,-68.2520325203252,75,red
6728.423039,1.399895629,1,179,1,0,-1,0.62600481,-783,-208,-0.1233333333333327,0.0239063101781974,-1.7073170731707503,5.648797805740999,58.90243902439022,75,green
6731.264469,1.558238269,1,180,1,0,1,0.518080452,-942,-209,-0.2648780487804862,0.0477016195798704,-3.739837398373956,5.711924575691314,9.146341463414624,75,green
6734.230955,1.49996263,1,181,1,0,-1,0.493912366,-884,-209,0.0813821138211375,0.0246825304980121,1.747967479674686,6.22469097318722,-8.252032520325185,75,green
6740.05562,1.358279671,1,183,1,1,1,0.518355308,-741,-208,-0.0636585365853648,0.0101446996795538,0.162601626016297,5.700340859498502,-60.36585365853659,75,red
6742.872154,1.366656642,1,184,1,0,-1,0.543595122,-750,-208,-0.0630894308943089,0.0171546641995882,-1.6260162601626014,4.9862657559979535,-79.71544715447152,75,green
6745.730287,1.566661566,1,185,0,0,-1,0.566449293,-950,-208,-0.1516260162601642,0.0374148072767464,-2.4390243902438105,7.353792239028614,60.04065040650404,75,green
6748.730211,1.483203059,1,186,0,0,1,0.506927409,-867,-209,-0.0418699186991895,0.0105691056910566,0.6097560975608832,4.549577805257633,9.30894308943088,75,green
6754.679824,1.516626958,1,188,1,0,-1,0.527545098,-900,-208,-0.0424390243902452,0.0195094849066281,-0.9756097560975976,5.1002897223103885,-5.081300813008131,75,green
6757.596401,1.566528086,1,189,1,0,-1,0.481460766,-950,-209,-0.0562601626016229,0.0238587067440971,-1.260162601626072,7.020879505093902,51.62601626016264,75,green
6763.812677,1.549897493,1,191,1,1,-1,0.54861667,-934,-208,-0.1572357723577267,0.0219247054567699,-1.8699186991869543,5.247210149835306,-69.02439024390246,75,red
6766.879219,1.408136509,1,192,0,0,-1,0.595562209,-792,-209,-0.0906504065040591,0.0138302217878658,0.8536585365853752,5.821671865441624,63.49593495934961,75,green
6769.637395,1.533190929,1,193,0,1,1,0.431482168,-917,-209,0.0535772357723578,0.010779641654613,0.1626016260162046,6.884695706126712,19.024390243902477,75,red
6772.49559,1.533155822,1,194,0,0,-1,0.404237125,-925,-209,-0.8579674796747896,0.0249851565426061,-2.195121951219549,6.208210146540786,-30.65040650406508,75,green
6778.336908,1.558183672,1,196,1,0,-1,0.453567196,-942,-209,-0.1173170731707333,0.0256101432413629,-1.3008130081300533,5.503290406754657,-64.02439024390245,75,green
6781.336627,1.400009782,1,197,0,0,-1,0.526791969,-784,-208,0.0208943089430923,0.0203300807155875,-1.1382113821138025,4.439277517426432,63.37398373983739,75,green
6784.082778,1.445452166,1,198,0,1,1,0.429287522,-829,-208,0.0354471544715472,0.0100734299198268,-0.325203252032548,5.585253427821866,16.58536585365858,75,red
6787.011394,1.424946519,1,199,0,1,-1,0.566239256,-808,-208,0.0346341463414685,0.018271532488125,1.6666666666666758,4.463036991443382,-1.58536585365857,75,red
6789.894557,1.566505381,1,200,0,1,1,0.538084884,-950,-208,-0.0605691056910547,0.016007797690067,-0.7317073170731523,4.418009160713575,1.9512195121951108,75,red
6797.335739,1.483260103,1,201,0,0,-1,1.128581471,-866,-208,-0.011219512195126,0.0144715447154474,-1.138211382113895,5.871697588704821,-26.58536585365847,75,green
6800.260696,1.449827127,1,202,0,1,1,0.524078434,-834,-209,0.0754471544715454,0.0116416405331183,0.3252032520325019,4.900355501112113,8.536585365853604,75,red
6803.118817,1.574881716,1,203,0,0,-1,0.480844962,-959,-209,-0.0530894308943067,0.0096621492791841,0.2032520325202327,5.298605455833556,-68.94308943089428,75,green
6806.077052,1.541513946,1,204,1,0,-1,0.466727708,-925,-208,-0.0827642276422721,0.029379868627128,-2.0325203252033446,4.605172582560922,61.66666666666669,75,green
6808.935095,1.46664165,1,205,1,1,1,0.397646149,-859,-209,0.0465853658536563,0.0204923210921182,2.032520325203252,2.933596512628996,14.71544715447157,75,red
6811.909958,1.391662329,1,206,1,1,-1,0.589426923,-775,-208,0.0503252032520282,0.0178994776871835,0.7317073170731984,4.884142535243806,-7.154471544715517,75,red
6814.734773,1.508248917,1,207,1,1,1,0.514598017,-891,-208,0.1732520325203264,0.0357505476750408,2.1544715447153826,5.892486401719441,7.479674796748008,75,red
6817.768024,1.441564258,1,208,0,0,-1,0.604235112,-825,-209,-0.043902439024388,0.0285061102415805,-1.5040650406503788,5.829614122702994,-6.747967479674871,75,green
6820.601253,1.508140069,1,209,1,1,1,0.470565487,-891,-208,0.0502439024390235,0.0220032505905902,2.154471544715475,5.776364119782577,74.71544715447158,75,red
6823.475957,1.424972902,1,210,1,1,1,0.451108285,-809,-209,0.1340650406504023,0.0109505887638922,0.3658536585365761,5.779510054181568,-60.731707317073216,75,red
6826.417594,1.499882022,1,211,0,0,-1,0.595243982,-883,-208,-0.0656910569105704,0.018372904493809,-1.7073170731707503,4.485565601344052,-79.95934959349584,75,green
6829.442382,1.433247361,1,212,0,0,-1,0.604152541,-817,-208,-0.1367479674796731,0.0123726909786968,-1.0569105691056542,5.267326519857756,54.51219512195117,75,green
6832.408794,1.425014799,1,213,0,1,1,0.613153434,-808,-208,0.0634959349593521,0.0110161851615961,-0.6097560975608832,3.821138211381931,79.75609756097558,75,red
6835.24212,1.424850535,1,214,0,1,1,0.487981124,-808,-208,0.206178861788614,0.0101538173417599,0.4471544715447246,4.88380419278718,-52.235772357723526,75,red
6838.141812,1.516637602,1,215,0,0,-1,0.558815639,-901,-209,0.0143902439024356,0.0122949840836642,-0.7317073170732445,5.855634264588159,-13.861788617886203,75,green
6843.891595,1.341598429,1,217,1,1,1,0.510845533,-725,-209,0.1091056910569162,0.0153376521002376,1.341463414634128,3.951252969178104,-4.796747967479751,75,red
6846.699729,1.350010315,1,218,0,1,1,0.545237084,-733,-208,-0.0164227642276461,0.018364268242248,1.2601626016260257,5.518882194626663,0.8536585365853271,75,red
6852.349405,1.491743791,1,220,0,1,-1,0.425916826,-875,-208,0.0149593495934942,0.0084106074179733,0.5284552845527808,4.08976222614846,-71.66666666666661,75,red
6855.282574,1.55828994,1,221,0,1,-1,0.522180161,-942,-209,-0.1665853658536548,0.032659458467309,-2.357723577235754,5.192443041247516,-0.5284552845528737,75,red
6858.224103,1.55825018,1,222,1,0,-1,0.46506661,-941,-208,0.0192682926829264,0.0077870731872837,0.5284552845528734,4.454513018472572,58.25203252032524,75,green
6861.140588,1.391630736,1,223,0,1,1,0.443140639,-775,-208,-0.0040650406504042,0.0148533715112372,-0.2032520325202791,7.581491529674806,10.00000000000001,75,red
6866.773618,1.416557182,1,225,1,0,-1,0.518686915,-808,-208,-0.0319512195121928,0.031759390218902,-2.398373983739828,5.992868169815441,2.357723577235753,75,green
6869.556758,1.53331343,1,226,1,0,-1,0.453353698,-916,-208,0.1934146341463362,0.032538815881419,2.642276422764228,8.320930687178434,59.26829268292682,75,green
6872.373231,1.350020605,1,227,1,1,1,0.368105723,-742,-209,0.037886178861796,0.016531476295444,1.2195121951219052,5.808884773299259,4.227642276422779,75,red
6875.106458,1.491561523,1,228,1,1,-1,0.463050532,-883,-208,0.0266666666666674,0.0242347345978556,1.9105691056910292,3.1356196383214576,-10.853658536585344,75,red
6877.972946,1.458301962,1,229,1,1,1,0.452762423,-842,-208,0.0232520325203265,0.0058378286409808,0.0406504065040742,3.3634373322660114,10.121951219512171,75,red
6880.747804,1.433242483,1,230,0,1,-1,0.396497936,-817,-209,-0.0208130081300834,0.0112271683550925,-0.6504065040650963,4.322344553177413,-74.10569105691057,75,red
6883.433503,1.572423375,1,231,0,0,-1,0.343469748,-956,-209,-0.0032520325203268,0.0184916013863655,-1.0975609756097289,4.737124270555244,-5.9349593495935045,75,green
6889.222274,1.474931491,1,233,0,1,1,0.426632442,-859,-209,-0.0482926829268321,0.0209450208673596,-0.813008130081301,5.656398530751685,74.47154471544718,75,red
6892.297233,1.524832405,1,234,1,1,1,0.682115276,-908,-208,0.0402439024390231,0.0201989575190626,1.5040650406503788,4.177706967699278,-55.65040650406503,75,red
6895.197025,1.574911665,1,235,1,1,-1,0.453098467,-959,-209,0.0958536585365863,0.0087109562510427,0.4471544715446322,3.965029898080013,-61.62601626016265,75,red
6898.138529,1.483222014,1,236,0,1,-1,0.439895577,-866,-208,0.0539837398373989,0.015634296428047,-1.3821138211381558,3.962945563237093,55.40650406504068,75,red
6900.988396,1.441537901,1,237,0,1,1,0.447397579,-825,-208,0.0653658536585453,0.0140073538564434,0.2032520325203254,5.994522363572812,8.048780487804923,75,red
6903.846482,1.433345011,1,238,1,1,-1,0.495163672,-817,-208,0.0147967479674805,0.014108443769736,-1.422764227642323,4.561548012717511,-67.39837398373986,75,red
6906.696355,1.47493296,1,239,1,1,-1,0.49960736,-859,-209,0.0617886178861765,0.0133640336624115,-0.2845528455284275,5.018967263106144,55.77235772357727,75,red
6909.546176,1.383307888,1,240,1,1,1,0.458012332,-767,-209,0.0219512195121962,0.0165614365873318,-1.097560975609867,7.293775013171017,69.75609756097553,75,red
28445.30263,1.491641819,2,3,1,1,1,1.207119035,-875,-208,-0.0062601626016206,0.0125924435467009,-0.6910569105691705,3.3124469573114697,-7.113821138211335,25,red
28448.87737,1.424964439,2,4,1,0,1,1.16621815,-808,-208,-0.0548780487804881,0.012777943022264,-1.4227642276422765,5.565098552437317,9.268292682926766,25,green
28452.17722,1.466645607,2,5,0,0,1,0.953012536,-850,-209,0.2928455284552813,0.0236634253044214,1.869918699186955,4.0857197597790655,-0.6910569105690775,25,green
28455.59377,1.508251193,2,6,0,0,1,1.02907087,-891,-208,0.1562601626016273,0.0241557836511113,1.3414634146340818,4.312009953227637,-2.4390243902439037,25,green
28459.04351,1.458310096,2,7,0,1,1,1.026566016,-842,-208,0.0147154471544659,0.0181226059181364,1.3821138211382482,5.83074784774719,-35.73170731707316,25,red
28462.41007,1.45819243,2,8,0,1,-1,0.994361112,-841,-208,0.5008130081300831,0.0447522391135669,3.6178861788618257,6.256730132786912,-71.21951219512198,25,red
28465.85153,1.41651392,2,9,0,0,-1,1.068129487,-800,-209,-0.2908130081300787,0.0154710982594541,-1.3008130081301,4.931951508326375,46.09756097560975,25,green
28469.18468,1.42490527,2,10,1,0,1,0.997178574,-808,-208,-0.0726829268292701,0.0133818273389007,-0.8130081300813007,5.310443145191144,-1.829268292682916,25,green
28472.2594,1.458330268,2,11,0,0,-1,0.735710023,-842,-208,-0.1024390243902408,0.0076188882734532,0.4878048780487067,4.002775162631515,-9.390243902439002,25,green
28475.33427,1.474918596,2,12,1,0,1,0.700062009,-867,-209,-0.1029268292682962,0.0157459337787192,-1.0975609756097284,3.746900364814005,12.560975609756076,25,green
28478.58403,1.466630221,2,13,1,1,-1,0.856716657,-858,-208,0.0956910569105641,0.0089490002639455,0.6504065040649575,5.32008069885597,-68.86178861788618,25,red
28481.70895,1.39157696,2,14,0,1,-1,0.744280706,-775,-208,-0.2677235772357683,0.02649109363863,-1.8699186991869543,3.95083473652587,37.60162601626016,25,red
28488.1419,1.56663094,2,16,0,1,1,1.042585447,-950,-208,0.0390243902439026,0.0230346883405072,1.3414634146341742,4.969002999832991,9.308943089430889,25,red
28491.50836,1.349926058,2,17,0,1,1,0.884815541,-734,-209,0.0871544715447125,0.0133561177525427,-1.0569105691056078,6.200752834363428,-0.1626016260162935,25,red
28494.38321,1.483235885,2,18,0,1,1,0.608292037,-875,-208,0.069186991869914,0.0268787422630499,1.5040650406503788,5.978789044178909,-61.91056910569103,25,red
28497.86629,1.499920774,2,19,1,1,-1,1.079674693,-883,-208,0.1969105691056925,0.0397363909460509,3.455284552845574,3.885039122592142,-68.86178861788618,25,red
28501.06613,1.416622667,2,20,0,0,-1,0.780921074,-801,-209,-0.2229268292682956,0.0258712932647242,-2.2764227642276977,6.2767702839885136,4.796747967479658,25,green
28507.14086,1.574955355,2,22,1,1,-1,0.794582851,-958,-208,-0.3391056910569094,0.0479410151606,-4.227642276422755,5.233019525773603,48.45528455284555,25,red
28510.46559,1.366591548,2,23,0,0,1,0.831226884,-759,-209,-0.0483739837398326,0.0139259535840195,0.2439024390244456,5.226067863410865,20.6910569105691,25,green
28513.54045,1.37489155,2,24,1,1,-1,0.793996373,-767,-209,-0.2714634146341456,0.0250983918788139,-1.9512195121951037,3.490258200596016,-75.52845528455283,25,red
28516.46538,1.374896625,2,25,1,0,-1,0.631910951,-758,-208,-0.1007317073170719,0.0093817051946349,0.7317073170731523,3.843989791697248,126.219512195122,25,green
28519.4402,1.333244464,2,26,0,0,-1,0.682358264,-717,-208,1.5683739837398396,0.0139979130291549,-0.6504065040650037,4.825941204246067,-110.16260162601633,25,green
28525.24815,1.449931088,2,28,1,0,1,0.575023057,-834,-209,-0.0858536585365882,0.0160123390850433,-2.0731707317072803,5.394724008513321,66.34146341463416,25,green
28528.2897,3.149762888,2,29,0,0,1,0.673747013,-2534,-209,0.0257723577235769,0.0085230244591729,0.0406504065040743,3.302454636031046,-49.878048780487816,25,green
28533.03932,1.51670903,2,30,0,1,-1,0.684641788,-900,-208,-0.0132520325203301,0.0082631388274941,-0.4471544715447249,5.020613203944045,-15.203252032520318,25,red
